key_resp.keys,key_resp.rt,mouse.x,mouse.y,mouse.leftButton,mouse.midButton,mouse.rightButton,mouse.time,mouse.clicked_name,mouse_4.x,mouse_4.y,mouse_4.leftButton,mouse_4.midButton,mouse_4.rightButton,mouse_4.time,mouse_4.clicked_name,cb.thisRepN,cb.thisTrialN,cb.thisN,cb.thisIndex,cb.ran,Forward,Backward,AbsoluteValue,cue1,targ1,font,images,participant,turkid,AGE,Did you learn English before the age of 4?,date,expName,psychopyVersion,OS,frameRate,atypic_slider.response,atypic_slider.rt,normal_slider.response,normal_slider.rt,mouse_3.x,mouse_3.y,mouse_3.leftButton,mouse_3.midButton,mouse_3.rightButton,mouse_3.time,mouse_3.clicked_name,textbox.text,mouse_5.x,mouse_5.y,mouse_5.leftButton,mouse_5.midButton,mouse_5.rightButton,mouse_5.time,mouse_5.clicked_name,correctAns,textbox_response,test.thisRepN,test.thisTrialN,test.thisN,test.thisIndex,test.ran,mouse_2.x,mouse_2.y,mouse_2.leftButton,mouse_2.midButton,mouse_2.rightButton,mouse_2.time,mouse_2.clicked_name
y,4.845155,-0.003963012,-0.325627477,1,0,0,5.744305,cont1,-0.003963012,-0.325627477,1,0,0,1.419605,stop_stud,0,0,0,0,1,0.02,0.029,0.009,angle,corner,flu,images/angle-corner-arial1.png,ANMD34DNHLOLC,ANMD34DNHLOLC,35,yes,2020-12-26_14h55.06.344,weird_font_low_1,2020.2.10,Win32,60,,,,,,,,,,,,,,,,,,,,,,,,,,,,,,,,,
,,,,,,,,,-0.003963012,-0.325627477,1,0,0,1.49747,stop_stud,0,1,1,9,1,0.042,0.055,0.013,nation,state,SF,images/nation-state-sf.png,ANMD34DNHLOLC,ANMD34DNHLOLC,35,yes,2020-12-26_14h55.06.344,weird_font_low_1,2020.2.10,Win32,60,,,,,,,,,,,,,,,,,,,,,,,,,,,,,,,,,
,,,,,,,,,-0.003963012,-0.325627477,1,0,0,1.29863,stop_stud,0,2,2,17,1,0.015,0.028,0.013,range,rifle,SF,images/range-rifle-sf.png,ANMD34DNHLOLC,ANMD34DNHLOLC,35,yes,2020-12-26_14h55.06.344,weird_font_low_1,2020.2.10,Win32,60,,,,,,,,,,,,,,,,,,,,,,,,,,,,,,,,,
,,,,,,,,,-0.003963012,-0.325627477,1,0,0,0.848835,stop_stud,0,3,3,3,1,0.035,0.046,0.011,college,student,SF,images/college-student-sf.png,ANMD34DNHLOLC,ANMD34DNHLOLC,35,yes,2020-12-26_14h55.06.344,weird_font_low_1,2020.2.10,Win32,60,,,,,,,,,,,,,,,,,,,,,,,,,,,,,,,,,
,,,,,,,,,-0.003963012,-0.325627477,1,0,0,0.983345,stop_stud,0,4,4,22,1,0.039,0.02,0.019,throat ,voice ,flu,images/throat-voice-arial1.png,ANMD34DNHLOLC,ANMD34DNHLOLC,35,yes,2020-12-26_14h55.06.344,weird_font_low_1,2020.2.10,Win32,60,,,,,,,,,,,,,,,,,,,,,,,,,,,,,,,,,
,,,,,,,,,-0.003963012,-0.325627477,1,0,0,0.93198,stop_stud,0,5,5,21,1,0.016,0.012,0.004,taste,touch,flu,images/taste-touch-arial1.png,ANMD34DNHLOLC,ANMD34DNHLOLC,35,yes,2020-12-26_14h55.06.344,weird_font_low_1,2020.2.10,Win32,60,,,,,,,,,,,,,,,,,,,,,,,,,,,,,,,,,
,,,,,,,,,-0.003963012,-0.325627477,1,0,0,0.84861,stop_stud,0,6,6,14,1,0.036,0.031,0.005,paint,picture,SF,images/paint-picture-sf.png,ANMD34DNHLOLC,ANMD34DNHLOLC,35,yes,2020-12-26_14h55.06.344,weird_font_low_1,2020.2.10,Win32,60,,,,,,,,,,,,,,,,,,,,,,,,,,,,,,,,,
,,,,,,,,,-0.003963012,-0.334874505,1,0,0,0.73125,stop_stud,0,7,7,7,1,0.027,0.041,0.014,group,meeting,flu,images/group-meeting-arial1.png,ANMD34DNHLOLC,ANMD34DNHLOLC,35,yes,2020-12-26_14h55.06.344,weird_font_low_1,2020.2.10,Win32,60,,,,,,,,,,,,,,,,,,,,,,,,,,,,,,,,,
,,,,,,,,,0.001321004,-0.309775429,1,0,0,0.93155,stop_stud,0,8,8,20,1,0.067,0.047,0.02,stick,branch,flu,images/stick-branch-arial1.png,ANMD34DNHLOLC,ANMD34DNHLOLC,35,yes,2020-12-26_14h55.06.344,weird_font_low_1,2020.2.10,Win32,60,,,,,,,,,,,,,,,,,,,,,,,,,,,,,,,,,
,,,,,,,,,0.001321004,-0.309775429,1,0,0,0.866115,stop_stud,0,9,9,2,1,0.03,0.01,0.02,child,mother,flu,images/child-mother-arial1.png,ANMD34DNHLOLC,ANMD34DNHLOLC,35,yes,2020-12-26_14h55.06.344,weird_font_low_1,2020.2.10,Win32,60,,,,,,,,,,,,,,,,,,,,,,,,,,,,,,,,,
,,,,,,,,,0.001321004,-0.309775429,1,0,0,1.18346,stop_stud,0,10,10,5,1,0.033,0.027,0.006,engine,machine,SF,images/engine-machine-sf.png,ANMD34DNHLOLC,ANMD34DNHLOLC,35,yes,2020-12-26_14h55.06.344,weird_font_low_1,2020.2.10,Win32,60,,,,,,,,,,,,,,,,,,,,,,,,,,,,,,,,,
,,,,,,,,,0.001321004,-0.311096433,1,0,0,0.89835,stop_stud,0,11,11,11,1,0.034,0.034,0,novel,story,SF,images/novel-story-sf.png,ANMD34DNHLOLC,ANMD34DNHLOLC,35,yes,2020-12-26_14h55.06.344,weird_font_low_1,2020.2.10,Win32,60,,,,,,,,,,,,,,,,,,,,,,,,,,,,,,,,,
,,,,,,,,,0.001321004,-0.311096433,1,0,0,1.014745,stop_stud,0,12,12,23,1,0.051,0.049,0.002,train,plane,SF,images/train-plane-sf.png,ANMD34DNHLOLC,ANMD34DNHLOLC,35,yes,2020-12-26_14h55.06.344,weird_font_low_1,2020.2.10,Win32,60,,,,,,,,,,,,,,,,,,,,,,,,,,,,,,,,,
,,,,,,,,,0.001321004,-0.311096433,1,0,0,0.848945,stop_stud,0,13,13,19,1,0.021,0.053,0.032,sheet,cover,flu,images/sheet-cover-arial1.png,ANMD34DNHLOLC,ANMD34DNHLOLC,35,yes,2020-12-26_14h55.06.344,weird_font_low_1,2020.2.10,Win32,60,,,,,,,,,,,,,,,,,,,,,,,,,,,,,,,,,
,,,,,,,,,0.001321004,-0.311096433,1,0,0,0.715635,stop_stud,0,14,14,12,1,0.014,0.021,0.007,object,symbol,flu,images/object-symbol-arial1.png,ANMD34DNHLOLC,ANMD34DNHLOLC,35,yes,2020-12-26_14h55.06.344,weird_font_low_1,2020.2.10,Win32,60,,,,,,,,,,,,,,,,,,,,,,,,,,,,,,,,,
,,,,,,,,,0.001321004,-0.312417437,1,0,0,0.83147,stop_stud,0,15,15,16,1,0.061,0.027,0.034,quarter,dollar,SF,images/quarter-dollar-sf.png,ANMD34DNHLOLC,ANMD34DNHLOLC,35,yes,2020-12-26_14h55.06.344,weird_font_low_1,2020.2.10,Win32,60,,,,,,,,,,,,,,,,,,,,,,,,,,,,,,,,,
,,,,,,,,,0.001321004,-0.312417437,1,0,0,0.76605,stop_stud,0,16,16,1,1,0.04,0.019,0.021,block,street,flu,images/block-street-arial1.png,ANMD34DNHLOLC,ANMD34DNHLOLC,35,yes,2020-12-26_14h55.06.344,weird_font_low_1,2020.2.10,Win32,60,,,,,,,,,,,,,,,,,,,,,,,,,,,,,,,,,
,,,,,,,,,0.002642008,-0.312417437,1,0,0,1.097165,stop_stud,0,17,17,18,1,0.015,0.024,0.009,report,weather,SF,images/report-weather-sf.png,ANMD34DNHLOLC,ANMD34DNHLOLC,35,yes,2020-12-26_14h55.06.344,weird_font_low_1,2020.2.10,Win32,60,,,,,,,,,,,,,,,,,,,,,,,,,,,,,,,,,
,,,,,,,,,0.002642008,-0.312417437,1,0,0,0.99844,stop_stud,0,18,18,13,1,0.014,0.01,0.004,office,doctor ,SF,images/office-doctor-sf.png,ANMD34DNHLOLC,ANMD34DNHLOLC,35,yes,2020-12-26_14h55.06.344,weird_font_low_1,2020.2.10,Win32,60,,,,,,,,,,,,,,,,,,,,,,,,,,,,,,,,,
,,,,,,,,,0.002642008,-0.312417437,1,0,0,0.681545,stop_stud,0,19,19,10,1,0.056,0.031,0.025,native,foreign,flu,images/native-foreign-arial1.png,ANMD34DNHLOLC,ANMD34DNHLOLC,35,yes,2020-12-26_14h55.06.344,weird_font_low_1,2020.2.10,Win32,60,,,,,,,,,,,,,,,,,,,,,,,,,,,,,,,,,
,,,,,,,,,0.002642008,-0.312417437,1,0,0,1.01631,stop_stud,0,20,20,4,1,0.018,0.011,0.007,curve,shape,SF,images/curve-shape-sf.png,ANMD34DNHLOLC,ANMD34DNHLOLC,35,yes,2020-12-26_14h55.06.344,weird_font_low_1,2020.2.10,Win32,60,,,,,,,,,,,,,,,,,,,,,,,,,,,,,,,,,
,,,,,,,,,0.002642008,-0.312417437,1,0,0,1.03122,stop_stud,0,21,21,8,1,0.019,0.028,0.009,lunch,supper,SF,images/lunch-supper-sf.png,ANMD34DNHLOLC,ANMD34DNHLOLC,35,yes,2020-12-26_14h55.06.344,weird_font_low_1,2020.2.10,Win32,60,,,,,,,,,,,,,,,,,,,,,,,,,,,,,,,,,
,,,,,,,,,0.002642008,-0.312417437,1,0,0,0.69932,stop_stud,0,22,22,6,1,0.02,0.028,0.008,factory,product,flu,images/factory-product-arial1.png,ANMD34DNHLOLC,ANMD34DNHLOLC,35,yes,2020-12-26_14h55.06.344,weird_font_low_1,2020.2.10,Win32,60,,,,,,,,,,,,,,,,,,,,,,,,,,,,,,,,,
,,,,,,,,,0.002642008,-0.312417437,1,0,0,0.79869,stop_stud,0,23,23,15,1,0.014,0.03,0.016,people,world,flu,images/people -world-arial1.png,ANMD34DNHLOLC,ANMD34DNHLOLC,35,yes,2020-12-26_14h55.06.344,weird_font_low_1,2020.2.10,Win32,60,,,,,,,,,,,,,,,,,,,,,,,,,,,,,,,,,
,,,,,,,,,,,,,,,,,,,,,0.061,0.027,0.034,quarter,dollar,SF,images/quarter-dollar-sf.png,ANMD34DNHLOLC,ANMD34DNHLOLC,35,yes,2020-12-26_14h55.06.344,weird_font_low_1,2020.2.10,Win32,60,50.26420079,0.079835,97.15984148,5.378755,0.486129458,-0.308454425,1,0,0,0.113765,polygon,dollar,-0.040951123,-0.019154557,1,0,0,1.088615,polygon_2,1,quarter,0,0,0,16,1,,,,,,,
,,,,,,,,,,,,,,,,,,,,,0.035,0.046,0.011,college,student,SF,images/college-student-sf.png,ANMD34DNHLOLC,ANMD34DNHLOLC,35,yes,2020-12-26_14h55.06.344,weird_font_low_1,2020.2.10,Win32,60,,,,,,,,,,,,student,-0.1334214,-0.020475561,1,0,0,0.847625,polygon_2,1,college,0,1,1,3,1,,,,,,,
,,,,,,,,,,,,,,,,,,,,,0.016,0.012,0.004,taste,touch,flu,images/taste-touch-arial1.png,ANMD34DNHLOLC,ANMD34DNHLOLC,35,yes,2020-12-26_14h55.06.344,weird_font_low_1,2020.2.10,Win32,60,,,,,,,,,,,,touch,-0.161162483,0.00330251,1,0,0,0.69756,polygon_2,1,taste,0,2,2,21,1,,,,,,,
,,,,,,,,,,,,,,,,,,,,,0.014,0.01,0.004,office,doctor ,SF,images/office-doctor-sf.png,ANMD34DNHLOLC,ANMD34DNHLOLC,35,yes,2020-12-26_14h55.06.344,weird_font_low_1,2020.2.10,Win32,60,,,,,,,,,,,,desk,-0.113606341,0.007265522,1,0,0,0.87494,polygon_2,1,office,0,3,3,13,1,,,,,,,
,,,,,,,,,,,,,,,,,,,,,0.039,0.02,0.019,throat ,voice ,flu,images/throat-voice-arial1.png,ANMD34DNHLOLC,ANMD34DNHLOLC,35,yes,2020-12-26_14h55.06.344,weird_font_low_1,2020.2.10,Win32,60,,,,,,,,,,,,sore,-0.232496697,-0.012549538,1,0,0,0.598075,polygon_2,1,throat ,0,4,4,22,1,,,,,,,
,,,,,,,,,,,,,,,,,,,,,0.014,0.021,0.007,object,symbol,flu,images/object-symbol-arial1.png,ANMD34DNHLOLC,ANMD34DNHLOLC,35,yes,2020-12-26_14h55.06.344,weird_font_low_1,2020.2.10,Win32,60,,,,,,,,,,,,thing,-0.27344782,-0.021796565,1,0,0,0.809095,polygon_2,1,object,0,5,5,12,1,,,,,,,
,,,,,,,,,,,,,,,,,,,,,0.015,0.024,0.009,report,weather,SF,images/report-weather-sf.png,ANMD34DNHLOLC,ANMD34DNHLOLC,35,yes,2020-12-26_14h55.06.344,weird_font_low_1,2020.2.10,Win32,60,,,,,,,,,,,,card,-0.157199472,0.031043593,1,0,0,0.678855,polygon_2,1,report,0,6,6,18,1,,,,,,,
,,,,,,,,,,,,,,,,,,,,,0.014,0.03,0.016,people,world,flu,images/people -world-arial1.png,ANMD34DNHLOLC,ANMD34DNHLOLC,35,yes,2020-12-26_14h55.06.344,weird_font_low_1,2020.2.10,Win32,60,,,,,,,,,,,,person,-0.179656539,-0.028401585,1,0,0,0.91695,polygon_2,1,people,0,7,7,15,1,,,,,,,
,,,,,,,,,,,,,,,,,,,,,0.04,0.019,0.021,block,street,flu,images/block-street-arial1.png,ANMD34DNHLOLC,ANMD34DNHLOLC,35,yes,2020-12-26_14h55.06.344,weird_font_low_1,2020.2.10,Win32,60,,,,,,,,,,,,square,-0.175693527,0.005944518,1,0,0,0.964595,polygon_2,1,block,0,8,8,1,1,,,,,,,
,,,,,,,,,,,,,,,,,,,,,0.056,0.031,0.025,native,foreign,flu,images/native-foreign-arial1.png,ANMD34DNHLOLC,ANMD34DNHLOLC,35,yes,2020-12-26_14h55.06.344,weird_font_low_1,2020.2.10,Win32,60,,,,,,,,,,,,country,-0.109643329,-0.041611625,1,0,0,0.959045,polygon_2,1,native,0,9,9,10,1,,,,,,,
,,,,,,,,,,,,,,,,,,,,,0.02,0.028,0.008,factory,product,flu,images/factory-product-arial1.png,ANMD34DNHLOLC,ANMD34DNHLOLC,35,yes,2020-12-26_14h55.06.344,weird_font_low_1,2020.2.10,Win32,60,,,,,,,,,,,,building,-0.157199472,-0.000660502,1,0,0,0.712315,polygon_2,1,factory,0,10,10,6,1,,,,,,,
,,,,,,,,,,,,,,,,,,,,,0.034,0.034,0,novel,story,SF,images/novel-story-sf.png,ANMD34DNHLOLC,ANMD34DNHLOLC,35,yes,2020-12-26_14h55.06.344,weird_font_low_1,2020.2.10,Win32,60,,,,,,,,,,,,book,-0.284015852,-0.008586526,1,0,0,0.912625,polygon_2,1,novel,0,11,11,11,1,,,,,,,
,,,,,,,,,,,,,,,,,,,,,0.02,0.029,0.009,angle,corner,flu,images/angle-corner-arial1.png,ANMD34DNHLOLC,ANMD34DNHLOLC,35,yes,2020-12-26_14h55.06.344,weird_font_low_1,2020.2.10,Win32,60,,,,,,,,,,,,corner,-0.12681638,-0.001981506,1,0,0,0.67952,polygon_2,1,angle,0,12,12,0,1,,,,,,,
,,,,,,,,,,,,,,,,,,,,,0.03,0.01,0.02,child,mother,flu,images/child-mother-arial1.png,ANMD34DNHLOLC,ANMD34DNHLOLC,35,yes,2020-12-26_14h55.06.344,weird_font_low_1,2020.2.10,Win32,60,,,,,,,,,,,,mother,-0.155878468,-0.011228534,1,0,0,0.86265,polygon_2,1,child,0,13,13,2,1,,,,,,,
,,,,,,,,,,,,,,,,,,,,,0.015,0.028,0.013,range,rifle,SF,images/range-rifle-sf.png,ANMD34DNHLOLC,ANMD34DNHLOLC,35,yes,2020-12-26_14h55.06.344,weird_font_low_1,2020.2.10,Win32,60,,,,,,,,,,,,shoot,-0.129458388,0.027080581,1,0,0,0.64574,polygon_2,1,range,0,14,14,17,1,,,,,,,
,,,,,,,,,,,,,,,,,,,,,0.019,0.028,0.009,lunch,supper,SF,images/lunch-supper-sf.png,ANMD34DNHLOLC,ANMD34DNHLOLC,35,yes,2020-12-26_14h55.06.344,weird_font_low_1,2020.2.10,Win32,60,,,,,,,,,,,,supper,-0.194187583,-0.005944518,1,0,0,0.995785,polygon_2,1,lunch,0,15,15,8,1,,,,,,,
,,,,,,,,,,,,,,,,,,,,,0.051,0.049,0.002,train,plane,SF,images/train-plane-sf.png,ANMD34DNHLOLC,ANMD34DNHLOLC,35,yes,2020-12-26_14h55.06.344,weird_font_low_1,2020.2.10,Win32,60,,,,,,,,,,,,ride,-0.240422721,0.005944518,1,0,0,0.76316,polygon_2,1,train,0,16,16,23,1,,,,,,,
,,,,,,,,,,,,,,,,,,,,,0.021,0.053,0.032,sheet,cover,flu,images/sheet-cover-arial1.png,ANMD34DNHLOLC,ANMD34DNHLOLC,35,yes,2020-12-26_14h55.06.344,weird_font_low_1,2020.2.10,Win32,60,,,,,,,,,,,,paper,-0.323645971,0.012549538,1,0,0,0.85842,polygon_2,1,sheet,0,17,17,19,1,,,,,,,
,,,,,,,,,,,,,,,,,,,,,0.027,0.041,0.014,group,meeting,flu,images/group-meeting-arial1.png,ANMD34DNHLOLC,ANMD34DNHLOLC,35,yes,2020-12-26_14h55.06.344,weird_font_low_1,2020.2.10,Win32,60,,,,,,,,,,,,class,-0.142668428,-0.007265522,1,0,0,0.758465,polygon_2,1,group,0,18,18,7,1,,,,,,,
,,,,,,,,,,,,,,,,,,,,,0.067,0.047,0.02,stick,branch,flu,images/stick-branch-arial1.png,ANMD34DNHLOLC,ANMD34DNHLOLC,35,yes,2020-12-26_14h55.06.344,weird_font_low_1,2020.2.10,Win32,60,,,,,,,,,,,,tree,-0.214002642,0.032364597,1,0,0,0.979605,polygon_2,1,stick,0,19,19,20,1,,,,,,,
,,,,,,,,,,,,,,,,,,,,,0.033,0.027,0.006,engine,machine,SF,images/engine-machine-sf.png,ANMD34DNHLOLC,ANMD34DNHLOLC,35,yes,2020-12-26_14h55.06.344,weird_font_low_1,2020.2.10,Win32,60,,,,,,,,,,,,rev,-0.162483487,0.000660502,1,0,0,0.714365,polygon_2,1,engine,0,20,20,5,1,,,,,,,
,,,,,,,,,,,,,,,,,,,,,0.042,0.055,0.013,nation,state,SF,images/nation-state-sf.png,ANMD34DNHLOLC,ANMD34DNHLOLC,35,yes,2020-12-26_14h55.06.344,weird_font_low_1,2020.2.10,Win32,60,,,,,,,,,,,,country,-0.154557464,-0.001981506,1,0,0,0.88391,polygon_2,1,nation,0,21,21,9,1,,,,,,,
,,,,,,,,,,,,,,,,,,,,,0.018,0.011,0.007,curve,shape,SF,images/curve-shape-sf.png,ANMD34DNHLOLC,ANMD34DNHLOLC,35,yes,2020-12-26_14h55.06.344,weird_font_low_1,2020.2.10,Win32,60,,,,,,,,,,,,turn,-0.21003963,0.000660502,1,0,0,0.934,polygon_2,1,curve,0,22,22,4,1,,,,,,,
,,,,,,,,,,,,,,,,,,,,,0.036,0.031,0.005,paint,picture,SF,images/paint-picture-sf.png,ANMD34DNHLOLC,ANMD34DNHLOLC,35,yes,2020-12-26_14h55.06.344,weird_font_low_1,2020.2.10,Win32,60,,,,,,,,,,,,brush,-0.220607662,0.001981506,1,0,0,0.990785,polygon_2,1,paint,0,23,23,14,1,,,,,,,
,,,,,,,,,,,,,,,,,,,,,,,,,,,,ANMD34DNHLOLC,ANMD34DNHLOLC,35,yes,2020-12-26_14h55.06.344,weird_font_low_1,2020.2.10,Win32,60,,,,,,,,,,,,,,,,,,,,,,,,,,,0.194187583,-0.138044914,1,0,0,1.912105,end_polygon
