key_resp.keys,key_resp.rt,mouse.x,mouse.y,mouse.leftButton,mouse.midButton,mouse.rightButton,mouse.time,mouse.clicked_name,mouse_4.x,mouse_4.y,mouse_4.leftButton,mouse_4.midButton,mouse_4.rightButton,mouse_4.time,mouse_4.clicked_name,cb.thisRepN,cb.thisTrialN,cb.thisN,cb.thisIndex,cb.ran,Forward,Backward,AbsoluteValue,cue1,targ1,font,images,participant,turkid,AGE,Did you learn English before the age of 4?,date,expName,psychopyVersion,OS,frameRate,atypic_slider.response,atypic_slider.rt,normal_slider.response,normal_slider.rt,mouse_3.x,mouse_3.y,mouse_3.leftButton,mouse_3.midButton,mouse_3.rightButton,mouse_3.time,mouse_3.clicked_name,textbox.text,mouse_5.x,mouse_5.y,mouse_5.leftButton,mouse_5.midButton,mouse_5.rightButton,mouse_5.time,mouse_5.clicked_name,correctAns,textbox_response,test.thisRepN,test.thisTrialN,test.thisN,test.thisIndex,test.ran,mouse_2.x,mouse_2.y,mouse_2.leftButton,mouse_2.midButton,mouse_2.rightButton,mouse_2.time,mouse_2.clicked_name
y,7.21085,-0.016,-0.3208,1,0,0,8.781355,cont1,0,-0.3272,1,0,0,16.052205,stop_stud,0,0,0,11,1,0.034,0.034,0,novel,story,SF,images/novel-story-sf.png,Raul,A3L9K9DZI8LFM4,38,Yes,2020-12-26_15h23.12.743,weird_font_low_1,2020.2.10,Win32,60,,,,,,,,,,,,,,,,,,,,,,,,,,,,,,,,,
,,,,,,,,,0,-0.3272,1,0,0,9.234305,stop_stud,0,1,1,6,1,0.02,0.028,0.008,factory,product,flu,images/factory-product-arial1.png,Raul,A3L9K9DZI8LFM4,38,Yes,2020-12-26_15h23.12.743,weird_font_low_1,2020.2.10,Win32,60,,,,,,,,,,,,,,,,,,,,,,,,,,,,,,,,,
,,,,,,,,,0,-0.3272,1,0,0,6.38476,stop_stud,0,2,2,20,1,0.067,0.047,0.02,stick,branch,flu,images/stick-branch-arial1.png,Raul,A3L9K9DZI8LFM4,38,Yes,2020-12-26_15h23.12.743,weird_font_low_1,2020.2.10,Win32,60,,,,,,,,,,,,,,,,,,,,,,,,,,,,,,,,,
,,,,,,,,,0,-0.3272,1,0,0,1.725555,stop_stud,0,3,3,17,1,0.015,0.028,0.013,range,rifle,SF,images/range-rifle-sf.png,Raul,A3L9K9DZI8LFM4,38,Yes,2020-12-26_15h23.12.743,weird_font_low_1,2020.2.10,Win32,60,,,,,,,,,,,,,,,,,,,,,,,,,,,,,,,,,
,,,,,,,,,0,-0.3272,1,0,0,0.87343,stop_stud,0,4,4,15,1,0.014,0.03,0.016,people,world,flu,images/people -world-arial1.png,Raul,A3L9K9DZI8LFM4,38,Yes,2020-12-26_15h23.12.743,weird_font_low_1,2020.2.10,Win32,60,,,,,,,,,,,,,,,,,,,,,,,,,,,,,,,,,
,,,,,,,,,0,-0.3272,1,0,0,1.024635,stop_stud,0,5,5,9,1,0.042,0.055,0.013,nation,state,SF,images/nation-state-sf.png,Raul,A3L9K9DZI8LFM4,38,Yes,2020-12-26_15h23.12.743,weird_font_low_1,2020.2.10,Win32,60,,,,,,,,,,,,,,,,,,,,,,,,,,,,,,,,,
,,,,,,,,,0,-0.3272,1,0,0,1.45103,stop_stud,0,6,6,22,1,0.039,0.02,0.019,throat ,voice ,flu,images/throat-voice-arial1.png,Raul,A3L9K9DZI8LFM4,38,Yes,2020-12-26_15h23.12.743,weird_font_low_1,2020.2.10,Win32,60,,,,,,,,,,,,,,,,,,,,,,,,,,,,,,,,,
,,,,,,,,,0,-0.3272,1,0,0,2.02691,stop_stud,0,7,7,21,1,0.016,0.012,0.004,taste,touch,flu,images/taste-touch-arial1.png,Raul,A3L9K9DZI8LFM4,38,Yes,2020-12-26_15h23.12.743,weird_font_low_1,2020.2.10,Win32,60,,,,,,,,,,,,,,,,,,,,,,,,,,,,,,,,,
,,,,,,,,,0,-0.3272,1,0,0,1.601185,stop_stud,0,8,8,1,1,0.04,0.019,0.021,block,street,flu,images/block-street-arial1.png,Raul,A3L9K9DZI8LFM4,38,Yes,2020-12-26_15h23.12.743,weird_font_low_1,2020.2.10,Win32,60,,,,,,,,,,,,,,,,,,,,,,,,,,,,,,,,,
,,,,,,,,,0,-0.3272,1,0,0,1.519715,stop_stud,0,9,9,2,1,0.03,0.01,0.02,child,mother,flu,images/child-mother-arial1.png,Raul,A3L9K9DZI8LFM4,38,Yes,2020-12-26_15h23.12.743,weird_font_low_1,2020.2.10,Win32,60,,,,,,,,,,,,,,,,,,,,,,,,,,,,,,,,,
,,,,,,,,,0,-0.3272,1,0,0,1.304725,stop_stud,0,10,10,23,1,0.051,0.049,0.002,train,plane,SF,images/train-plane-sf.png,Raul,A3L9K9DZI8LFM4,38,Yes,2020-12-26_15h23.12.743,weird_font_low_1,2020.2.10,Win32,60,,,,,,,,,,,,,,,,,,,,,,,,,,,,,,,,,
,,,,,,,,,0,-0.3272,1,0,0,1.373825,stop_stud,0,11,11,5,1,0.033,0.027,0.006,engine,machine,SF,images/engine-machine-sf.png,Raul,A3L9K9DZI8LFM4,38,Yes,2020-12-26_15h23.12.743,weird_font_low_1,2020.2.10,Win32,60,,,,,,,,,,,,,,,,,,,,,,,,,,,,,,,,,
,,,,,,,,,0,-0.3272,1,0,0,1.17439,stop_stud,0,12,12,16,1,0.061,0.027,0.034,quarter,dollar,SF,images/quarter-dollar-sf.png,Raul,A3L9K9DZI8LFM4,38,Yes,2020-12-26_15h23.12.743,weird_font_low_1,2020.2.10,Win32,60,,,,,,,,,,,,,,,,,,,,,,,,,,,,,,,,,
,,,,,,,,,0,-0.3272,1,0,0,1.0255,stop_stud,0,13,13,14,1,0.036,0.031,0.005,paint,picture,SF,images/paint-picture-sf.png,Raul,A3L9K9DZI8LFM4,38,Yes,2020-12-26_15h23.12.743,weird_font_low_1,2020.2.10,Win32,60,,,,,,,,,,,,,,,,,,,,,,,,,,,,,,,,,
,,,,,,,,,0,-0.3272,1,0,0,1.42613,stop_stud,0,14,14,12,1,0.014,0.021,0.007,object,symbol,flu,images/object-symbol-arial1.png,Raul,A3L9K9DZI8LFM4,38,Yes,2020-12-26_15h23.12.743,weird_font_low_1,2020.2.10,Win32,60,,,,,,,,,,,,,,,,,,,,,,,,,,,,,,,,,
,,,,,,,,,0,-0.3272,1,0,0,2.225945,stop_stud,0,15,15,18,1,0.015,0.024,0.009,report,weather,SF,images/report-weather-sf.png,Raul,A3L9K9DZI8LFM4,38,Yes,2020-12-26_15h23.12.743,weird_font_low_1,2020.2.10,Win32,60,,,,,,,,,,,,,,,,,,,,,,,,,,,,,,,,,
,,,,,,,,,0,-0.3272,1,0,0,1.44986,stop_stud,0,16,16,13,1,0.014,0.01,0.004,office,doctor ,SF,images/office-doctor-sf.png,Raul,A3L9K9DZI8LFM4,38,Yes,2020-12-26_15h23.12.743,weird_font_low_1,2020.2.10,Win32,60,,,,,,,,,,,,,,,,,,,,,,,,,,,,,,,,,
,,,,,,,,,0,-0.3272,1,0,0,1.07523,stop_stud,0,17,17,0,1,0.02,0.029,0.009,angle,corner,flu,images/angle-corner-arial1.png,Raul,A3L9K9DZI8LFM4,38,Yes,2020-12-26_15h23.12.743,weird_font_low_1,2020.2.10,Win32,60,,,,,,,,,,,,,,,,,,,,,,,,,,,,,,,,,
,,,,,,,,,0,-0.3272,1,0,0,1.17475,stop_stud,0,18,18,8,1,0.019,0.028,0.009,lunch,supper,SF,images/lunch-supper-sf.png,Raul,A3L9K9DZI8LFM4,38,Yes,2020-12-26_15h23.12.743,weird_font_low_1,2020.2.10,Win32,60,,,,,,,,,,,,,,,,,,,,,,,,,,,,,,,,,
,,,,,,,,,0,-0.3272,1,0,0,1.397565,stop_stud,0,19,19,19,1,0.021,0.053,0.032,sheet,cover,flu,images/sheet-cover-arial1.png,Raul,A3L9K9DZI8LFM4,38,Yes,2020-12-26_15h23.12.743,weird_font_low_1,2020.2.10,Win32,60,,,,,,,,,,,,,,,,,,,,,,,,,,,,,,,,,
,,,,,,,,,0,-0.3272,1,0,0,1.72545,stop_stud,0,20,20,4,1,0.018,0.011,0.007,curve,shape,SF,images/curve-shape-sf.png,Raul,A3L9K9DZI8LFM4,38,Yes,2020-12-26_15h23.12.743,weird_font_low_1,2020.2.10,Win32,60,,,,,,,,,,,,,,,,,,,,,,,,,,,,,,,,,
,,,,,,,,,0,-0.3272,1,0,0,2.475865,stop_stud,0,21,21,3,1,0.035,0.046,0.011,college,student,SF,images/college-student-sf.png,Raul,A3L9K9DZI8LFM4,38,Yes,2020-12-26_15h23.12.743,weird_font_low_1,2020.2.10,Win32,60,,,,,,,,,,,,,,,,,,,,,,,,,,,,,,,,,
,,,,,,,,,0,-0.3272,1,0,0,3.35019,stop_stud,0,22,22,7,1,0.027,0.041,0.014,group,meeting,flu,images/group-meeting-arial1.png,Raul,A3L9K9DZI8LFM4,38,Yes,2020-12-26_15h23.12.743,weird_font_low_1,2020.2.10,Win32,60,,,,,,,,,,,,,,,,,,,,,,,,,,,,,,,,,
,,,,,,,,,0,-0.3272,1,0,0,2.053665,stop_stud,0,23,23,10,1,0.056,0.031,0.025,native,foreign,flu,images/native-foreign-arial1.png,Raul,A3L9K9DZI8LFM4,38,Yes,2020-12-26_15h23.12.743,weird_font_low_1,2020.2.10,Win32,60,,,,,,,,,,,,,,,,,,,,,,,,,,,,,,,,,
,,,,,,,,,,,,,,,,,,,,,0.027,0.041,0.014,group,meeting,flu,images/group-meeting-arial1.png,Raul,A3L9K9DZI8LFM4,38,Yes,2020-12-26_15h23.12.743,weird_font_low_1,2020.2.10,Win32,60,50,0.15817,62.8,4.557645,0.008,-0.404,1,0,0,4.253545,polygon,meeting,0.0576,0.0136,1,0,0,3.373415,polygon_2,1,group,0,0,0,7,1,,,,,,,
,,,,,,,,,,,,,,,,,,,,,0.014,0.01,0.004,office,doctor ,SF,images/office-doctor-sf.png,Raul,A3L9K9DZI8LFM4,38,Yes,2020-12-26_15h23.12.743,weird_font_low_1,2020.2.10,Win32,60,,,,,,,,,,,,work,-0.0016,-0.0232,1,0,0,1.13864,polygon_2,1,office,0,1,1,13,1,,,,,,,
,,,,,,,,,,,,,,,,,,,,,0.015,0.024,0.009,report,weather,SF,images/report-weather-sf.png,Raul,A3L9K9DZI8LFM4,38,Yes,2020-12-26_15h23.12.743,weird_font_low_1,2020.2.10,Win32,60,,,,,,,,,,,,weather,-0.0544,0.0072,1,0,0,1.34429,polygon_2,1,report,0,2,2,18,1,,,,,,,
,,,,,,,,,,,,,,,,,,,,,0.039,0.02,0.019,throat ,voice ,flu,images/throat-voice-arial1.png,Raul,A3L9K9DZI8LFM4,38,Yes,2020-12-26_15h23.12.743,weird_font_low_1,2020.2.10,Win32,60,,,,,,,,,,,,voice,-0.1104,0.0088,1,0,0,3.451965,polygon_2,1,throat ,0,3,3,22,1,,,,,,,
,,,,,,,,,,,,,,,,,,,,,0.03,0.01,0.02,child,mother,flu,images/child-mother-arial1.png,Raul,A3L9K9DZI8LFM4,38,Yes,2020-12-26_15h23.12.743,weird_font_low_1,2020.2.10,Win32,60,,,,,,,,,,,,parent,0.0944,-0.0136,1,0,0,2.874135,polygon_2,1,child,0,4,4,2,1,,,,,,,
,,,,,,,,,,,,,,,,,,,,,0.04,0.019,0.021,block,street,flu,images/block-street-arial1.png,Raul,A3L9K9DZI8LFM4,38,Yes,2020-12-26_15h23.12.743,weird_font_low_1,2020.2.10,Win32,60,,,,,,,,,,,,street,0.0528,-0.0072,1,0,0,0.94826,polygon_2,1,block,0,5,5,1,1,,,,,,,
,,,,,,,,,,,,,,,,,,,,,0.056,0.031,0.025,native,foreign,flu,images/native-foreign-arial1.png,Raul,A3L9K9DZI8LFM4,38,Yes,2020-12-26_15h23.12.743,weird_font_low_1,2020.2.10,Win32,60,,,,,,,,,,,,foreing,-0.0272,-0.0168,1,0,0,1.267895,polygon_2,1,native,0,6,6,10,1,,,,,,,
,,,,,,,,,,,,,,,,,,,,,0.033,0.027,0.006,engine,machine,SF,images/engine-machine-sf.png,Raul,A3L9K9DZI8LFM4,38,Yes,2020-12-26_15h23.12.743,weird_font_low_1,2020.2.10,Win32,60,,,,,,,,,,,,machine,-0.2992,0.0024,1,0,0,9.77128,polygon_2,1,engine,0,7,7,5,1,,,,,,,
,,,,,,,,,,,,,,,,,,,,,0.051,0.049,0.002,train,plane,SF,images/train-plane-sf.png,Raul,A3L9K9DZI8LFM4,38,Yes,2020-12-26_15h23.12.743,weird_font_low_1,2020.2.10,Win32,60,,,,,,,,,,,,riel,-0.0512,-0.0248,1,0,0,2.80456,polygon_2,1,train,0,8,8,23,1,,,,,,,
,,,,,,,,,,,,,,,,,,,,,0.034,0.034,0,novel,story,SF,images/novel-story-sf.png,Raul,A3L9K9DZI8LFM4,38,Yes,2020-12-26_15h23.12.743,weird_font_low_1,2020.2.10,Win32,60,,,,,,,,,,,,story,-0.0864,-0.012,1,0,0,1.055925,polygon_2,1,novel,0,9,9,11,1,,,,,,,
,,,,,,,,,,,,,,,,,,,,,0.018,0.011,0.007,curve,shape,SF,images/curve-shape-sf.png,Raul,A3L9K9DZI8LFM4,38,Yes,2020-12-26_15h23.12.743,weird_font_low_1,2020.2.10,Win32,60,,,,,,,,,,,,line,-0.0592,-0.028,1,0,0,1.751415,polygon_2,1,curve,0,10,10,4,1,,,,,,,
,,,,,,,,,,,,,,,,,,,,,0.02,0.028,0.008,factory,product,flu,images/factory-product-arial1.png,Raul,A3L9K9DZI8LFM4,38,Yes,2020-12-26_15h23.12.743,weird_font_low_1,2020.2.10,Win32,60,,,,,,,,,,,,product,-0.096,-0.0104,1,0,0,0.87013,polygon_2,1,factory,0,11,11,6,1,,,,,,,
,,,,,,,,,,,,,,,,,,,,,0.042,0.055,0.013,nation,state,SF,images/nation-state-sf.png,Raul,A3L9K9DZI8LFM4,38,Yes,2020-12-26_15h23.12.743,weird_font_low_1,2020.2.10,Win32,60,,,,,,,,,,,,state,-0.1328,-0.0296,1,0,0,1.657275,polygon_2,1,nation,0,12,12,9,1,,,,,,,
,,,,,,,,,,,,,,,,,,,,,0.036,0.031,0.005,paint,picture,SF,images/paint-picture-sf.png,Raul,A3L9K9DZI8LFM4,38,Yes,2020-12-26_15h23.12.743,weird_font_low_1,2020.2.10,Win32,60,,,,,,,,,,,,color,-0.1888,-0.012,1,0,0,0.97345,polygon_2,1,paint,0,13,13,14,1,,,,,,,
,,,,,,,,,,,,,,,,,,,,,0.019,0.028,0.009,lunch,supper,SF,images/lunch-supper-sf.png,Raul,A3L9K9DZI8LFM4,38,Yes,2020-12-26_15h23.12.743,weird_font_low_1,2020.2.10,Win32,60,,,,,,,,,,,,food,-0.216,-0.02,1,0,0,1.1353,polygon_2,1,lunch,0,14,14,8,1,,,,,,,
,,,,,,,,,,,,,,,,,,,,,0.061,0.027,0.034,quarter,dollar,SF,images/quarter-dollar-sf.png,Raul,A3L9K9DZI8LFM4,38,Yes,2020-12-26_15h23.12.743,weird_font_low_1,2020.2.10,Win32,60,,,,,,,,,,,,,0.016,-0.3224,1,0,0,7.428925,polygon_2,1,quarter,0,15,15,16,1,,,,,,,
,,,,,,,,,,,,,,,,,,,,,0.014,0.03,0.016,people,world,flu,images/people -world-arial1.png,Raul,A3L9K9DZI8LFM4,38,Yes,2020-12-26_15h23.12.743,weird_font_low_1,2020.2.10,Win32,60,,,,,,,,,,,,world,-0.0448,-0.0264,1,0,0,1.00595,polygon_2,1,people,0,16,16,15,1,,,,,,,
,,,,,,,,,,,,,,,,,,,,,0.067,0.047,0.02,stick,branch,flu,images/stick-branch-arial1.png,Raul,A3L9K9DZI8LFM4,38,Yes,2020-12-26_15h23.12.743,weird_font_low_1,2020.2.10,Win32,60,,,,,,,,,,,,brand,-0.1152,-0.02,1,0,0,0.74533,polygon_2,1,stick,0,17,17,20,1,,,,,,,
,,,,,,,,,,,,,,,,,,,,,0.015,0.028,0.013,range,rifle,SF,images/range-rifle-sf.png,Raul,A3L9K9DZI8LFM4,38,Yes,2020-12-26_15h23.12.743,weird_font_low_1,2020.2.10,Win32,60,,,,,,,,,,,,,0.0016,-0.2984,1,0,0,2.790175,polygon_2,1,range,0,18,18,17,1,,,,,,,
,,,,,,,,,,,,,,,,,,,,,0.016,0.012,0.004,taste,touch,flu,images/taste-touch-arial1.png,Raul,A3L9K9DZI8LFM4,38,Yes,2020-12-26_15h23.12.743,weird_font_low_1,2020.2.10,Win32,60,,,,,,,,,,,,food,-0.0768,-0.0216,1,0,0,1.22605,polygon_2,1,taste,0,19,19,21,1,,,,,,,
,,,,,,,,,,,,,,,,,,,,,0.02,0.029,0.009,angle,corner,flu,images/angle-corner-arial1.png,Raul,A3L9K9DZI8LFM4,38,Yes,2020-12-26_15h23.12.743,weird_font_low_1,2020.2.10,Win32,60,,,,,,,,,,,,line,-0.168,0.036,1,0,0,2.207425,polygon_2,1,angle,0,20,20,0,1,,,,,,,
,,,,,,,,,,,,,,,,,,,,,0.035,0.046,0.011,college,student,SF,images/college-student-sf.png,Raul,A3L9K9DZI8LFM4,38,Yes,2020-12-26_15h23.12.743,weird_font_low_1,2020.2.10,Win32,60,,,,,,,,,,,,student,-0.3168,0.0072,1,0,0,1.17084,polygon_2,1,college,0,21,21,3,1,,,,,,,
,,,,,,,,,,,,,,,,,,,,,0.021,0.053,0.032,sheet,cover,flu,images/sheet-cover-arial1.png,Raul,A3L9K9DZI8LFM4,38,Yes,2020-12-26_15h23.12.743,weird_font_low_1,2020.2.10,Win32,60,,,,,,,,,,,,,0.0048,-0.2984,1,0,0,2.42379,polygon_2,1,sheet,0,22,22,19,1,,,,,,,
,,,,,,,,,,,,,,,,,,,,,0.014,0.021,0.007,object,symbol,flu,images/object-symbol-arial1.png,Raul,A3L9K9DZI8LFM4,38,Yes,2020-12-26_15h23.12.743,weird_font_low_1,2020.2.10,Win32,60,,,,,,,,,,,,,0.0048,-0.2984,1,0,0,2.899755,polygon_2,1,object,0,23,23,12,1,,,,,,,
,,,,,,,,,,,,,,,,,,,,,,,,,,,,Raul,A3L9K9DZI8LFM4,38,Yes,2020-12-26_15h23.12.743,weird_font_low_1,2020.2.10,Win32,60,,,,,,,,,,,,,,,,,,,,,,,,,,,0.0112,-0.3192,1,0,0,4.379665,end_polygon
