key_resp.keys,key_resp.rt,mouse.x,mouse.y,mouse.leftButton,mouse.midButton,mouse.rightButton,mouse.time,mouse.clicked_name,mouse_4.x,mouse_4.y,mouse_4.leftButton,mouse_4.midButton,mouse_4.rightButton,mouse_4.time,mouse_4.clicked_name,cb.thisRepN,cb.thisTrialN,cb.thisN,cb.thisIndex,cb.ran,Forward,Backward,AbsoluteValue,cue1,targ1,font,images,participant,turkid,AGE,Did you learn English before the age of 4?,date,expName,psychopyVersion,OS,frameRate,atypic_slider.response,atypic_slider.rt,normal_slider.response,normal_slider.rt,mouse_3.x,mouse_3.y,mouse_3.leftButton,mouse_3.midButton,mouse_3.rightButton,mouse_3.time,mouse_3.clicked_name,textbox.text,mouse_5.x,mouse_5.y,mouse_5.leftButton,mouse_5.midButton,mouse_5.rightButton,mouse_5.time,mouse_5.clicked_name,correctAns,textbox_response,test.thisRepN,test.thisTrialN,test.thisN,test.thisIndex,test.ran,mouse_2.x,mouse_2.y,mouse_2.leftButton,mouse_2.midButton,mouse_2.rightButton,mouse_2.time,mouse_2.clicked_name
y,11.77503,-0.000328697,-0.307574314,1,0,0,7.84218,cont1,0.008112614,-0.325071456,1,0,0,3.838505,stop_stud,0,0,0,13,1,0.014,0.01,0.004,office,doctor ,SF,images/office-doctor-sf.png,TT,A1SOFLJOEQB591,42,yes,2020-12-26_14h34.15.957,weird_font_low_1,2020.2.10,MacIntel,60,,,,,,,,,,,,,,,,,,,,,,,,,,,,,,,,,
,,,,,,,,,0.008112614,-0.325071456,1,0,0,2.343525,stop_stud,0,1,1,22,1,0.039,0.02,0.019,throat ,voice ,flu,images/throat-voice-arial1.png,TT,A1SOFLJOEQB591,42,yes,2020-12-26_14h34.15.957,weird_font_low_1,2020.2.10,MacIntel,60,,,,,,,,,,,,,,,,,,,,,,,,,,,,,,,,,
,,,,,,,,,0.008112614,-0.325071456,1,0,0,1.93099,stop_stud,0,2,2,4,1,0.018,0.011,0.007,curve,shape,SF,images/curve-shape-sf.png,TT,A1SOFLJOEQB591,42,yes,2020-12-26_14h34.15.957,weird_font_low_1,2020.2.10,MacIntel,60,,,,,,,,,,,,,,,,,,,,,,,,,,,,,,,,,
,,,,,,,,,0.008112614,-0.325071456,1,0,0,1.465845,stop_stud,0,3,3,7,1,0.027,0.041,0.014,group,meeting,flu,images/group-meeting-arial1.png,TT,A1SOFLJOEQB591,42,yes,2020-12-26_14h34.15.957,weird_font_low_1,2020.2.10,MacIntel,60,,,,,,,,,,,,,,,,,,,,,,,,,,,,,,,,,
,,,,,,,,,0.008112614,-0.325071456,1,0,0,1.06385,stop_stud,0,4,4,11,1,0.034,0.034,0,novel,story,SF,images/novel-story-sf.png,TT,A1SOFLJOEQB591,42,yes,2020-12-26_14h34.15.957,weird_font_low_1,2020.2.10,MacIntel,60,,,,,,,,,,,,,,,,,,,,,,,,,,,,,,,,,
,,,,,,,,,0.008112614,-0.325071456,1,0,0,0.984415,stop_stud,0,5,5,5,1,0.033,0.027,0.006,engine,machine,SF,images/engine-machine-sf.png,TT,A1SOFLJOEQB591,42,yes,2020-12-26_14h34.15.957,weird_font_low_1,2020.2.10,MacIntel,60,,,,,,,,,,,,,,,,,,,,,,,,,,,,,,,,,
,,,,,,,,,0.008112614,-0.325071456,1,0,0,1.49564,stop_stud,0,6,6,18,1,0.015,0.024,0.009,report,weather,SF,images/report-weather-sf.png,TT,A1SOFLJOEQB591,42,yes,2020-12-26_14h34.15.957,weird_font_low_1,2020.2.10,MacIntel,60,,,,,,,,,,,,,,,,,,,,,,,,,,,,,,,,,
,,,,,,,,,0.008112614,-0.325071456,1,0,0,1.06554,stop_stud,0,7,7,3,1,0.035,0.046,0.011,college,student,SF,images/college-student-sf.png,TT,A1SOFLJOEQB591,42,yes,2020-12-26_14h34.15.957,weird_font_low_1,2020.2.10,MacIntel,60,,,,,,,,,,,,,,,,,,,,,,,,,,,,,,,,,
,,,,,,,,,0.008112614,-0.325071456,1,0,0,1.09707,stop_stud,0,8,8,12,1,0.014,0.021,0.007,object,symbol,flu,images/object-symbol-arial1.png,TT,A1SOFLJOEQB591,42,yes,2020-12-26_14h34.15.957,weird_font_low_1,2020.2.10,MacIntel,60,,,,,,,,,,,,,,,,,,,,,,,,,,,,,,,,,
,,,,,,,,,0.008112614,-0.325071456,1,0,0,1.531195,stop_stud,0,9,9,17,1,0.015,0.028,0.013,range,rifle,SF,images/range-rifle-sf.png,TT,A1SOFLJOEQB591,42,yes,2020-12-26_14h34.15.957,weird_font_low_1,2020.2.10,MacIntel,60,,,,,,,,,,,,,,,,,,,,,,,,,,,,,,,,,
,,,,,,,,,0.008112614,-0.325071456,1,0,0,1.10006,stop_stud,0,10,10,1,1,0.04,0.019,0.021,block,street,flu,images/block-street-arial1.png,TT,A1SOFLJOEQB591,42,yes,2020-12-26_14h34.15.957,weird_font_low_1,2020.2.10,MacIntel,60,,,,,,,,,,,,,,,,,,,,,,,,,,,,,,,,,
,,,,,,,,,0.008112614,-0.325071456,1,0,0,0.997165,stop_stud,0,11,11,14,1,0.036,0.031,0.005,paint,picture,SF,images/paint-picture-sf.png,TT,A1SOFLJOEQB591,42,yes,2020-12-26_14h34.15.957,weird_font_low_1,2020.2.10,MacIntel,60,,,,,,,,,,,,,,,,,,,,,,,,,,,,,,,,,
,,,,,,,,,0.008112614,-0.325071456,1,0,0,0.980845,stop_stud,0,12,12,21,1,0.016,0.012,0.004,taste,touch,flu,images/taste-touch-arial1.png,TT,A1SOFLJOEQB591,42,yes,2020-12-26_14h34.15.957,weird_font_low_1,2020.2.10,MacIntel,60,,,,,,,,,,,,,,,,,,,,,,,,,,,,,,,,,
,,,,,,,,,0.008112614,-0.325071456,1,0,0,1.14797,stop_stud,0,13,13,23,1,0.051,0.049,0.002,train,plane,SF,images/train-plane-sf.png,TT,A1SOFLJOEQB591,42,yes,2020-12-26_14h34.15.957,weird_font_low_1,2020.2.10,MacIntel,60,,,,,,,,,,,,,,,,,,,,,,,,,,,,,,,,,
,,,,,,,,,0.008112614,-0.325071456,1,0,0,1.49706,stop_stud,0,14,14,15,1,0.014,0.03,0.016,people,world,flu,images/people -world-arial1.png,TT,A1SOFLJOEQB591,42,yes,2020-12-26_14h34.15.957,weird_font_low_1,2020.2.10,MacIntel,60,,,,,,,,,,,,,,,,,,,,,,,,,,,,,,,,,
,,,,,,,,,0.008112614,-0.325071456,1,0,0,1.06376,stop_stud,0,15,15,10,1,0.056,0.031,0.025,native,foreign,flu,images/native-foreign-arial1.png,TT,A1SOFLJOEQB591,42,yes,2020-12-26_14h34.15.957,weird_font_low_1,2020.2.10,MacIntel,60,,,,,,,,,,,,,,,,,,,,,,,,,,,,,,,,,
,,,,,,,,,0.008112614,-0.325071456,1,0,0,1.550025,stop_stud,0,16,16,19,1,0.021,0.053,0.032,sheet,cover,flu,images/sheet-cover-arial1.png,TT,A1SOFLJOEQB591,42,yes,2020-12-26_14h34.15.957,weird_font_low_1,2020.2.10,MacIntel,60,,,,,,,,,,,,,,,,,,,,,,,,,,,,,,,,,
,,,,,,,,,0.008112614,-0.325071456,1,0,0,2.165085,stop_stud,0,17,17,0,1,0.02,0.029,0.009,angle,corner,flu,images/angle-corner-arial1.png,TT,A1SOFLJOEQB591,42,yes,2020-12-26_14h34.15.957,weird_font_low_1,2020.2.10,MacIntel,60,,,,,,,,,,,,,,,,,,,,,,,,,,,,,,,,,
,,,,,,,,,0.008112614,-0.325071456,1,0,0,1.629805,stop_stud,0,18,18,20,1,0.067,0.047,0.02,stick,branch,flu,images/stick-branch-arial1.png,TT,A1SOFLJOEQB591,42,yes,2020-12-26_14h34.15.957,weird_font_low_1,2020.2.10,MacIntel,60,,,,,,,,,,,,,,,,,,,,,,,,,,,,,,,,,
,,,,,,,,,0.008112614,-0.325071456,1,0,0,1.517575,stop_stud,0,19,19,9,1,0.042,0.055,0.013,nation,state,SF,images/nation-state-sf.png,TT,A1SOFLJOEQB591,42,yes,2020-12-26_14h34.15.957,weird_font_low_1,2020.2.10,MacIntel,60,,,,,,,,,,,,,,,,,,,,,,,,,,,,,,,,,
,,,,,,,,,0.008112614,-0.325071456,1,0,0,1.446675,stop_stud,0,20,20,8,1,0.019,0.028,0.009,lunch,supper,SF,images/lunch-supper-sf.png,TT,A1SOFLJOEQB591,42,yes,2020-12-26_14h34.15.957,weird_font_low_1,2020.2.10,MacIntel,60,,,,,,,,,,,,,,,,,,,,,,,,,,,,,,,,,
,,,,,,,,,0.008112614,-0.325071456,1,0,0,1.25014,stop_stud,0,21,21,6,1,0.02,0.028,0.008,factory,product,flu,images/factory-product-arial1.png,TT,A1SOFLJOEQB591,42,yes,2020-12-26_14h34.15.957,weird_font_low_1,2020.2.10,MacIntel,60,,,,,,,,,,,,,,,,,,,,,,,,,,,,,,,,,
,,,,,,,,,0.008112614,-0.325071456,1,0,0,1.362585,stop_stud,0,22,22,16,1,0.061,0.027,0.034,quarter,dollar,SF,images/quarter-dollar-sf.png,TT,A1SOFLJOEQB591,42,yes,2020-12-26_14h34.15.957,weird_font_low_1,2020.2.10,MacIntel,60,,,,,,,,,,,,,,,,,,,,,,,,,,,,,,,,,
,,,,,,,,,0.008112614,-0.325071456,1,0,0,1.23375,stop_stud,0,23,23,2,1,0.03,0.01,0.02,child,mother,flu,images/child-mother-arial1.png,TT,A1SOFLJOEQB591,42,yes,2020-12-26_14h34.15.957,weird_font_low_1,2020.2.10,MacIntel,60,,,,,,,,,,,,,,,,,,,,,,,,,,,,,,,,,
,,,,,,,,,,,,,,,,,,,,,0.061,0.027,0.034,quarter,dollar,SF,images/quarter-dollar-sf.png,TT,A1SOFLJOEQB591,42,yes,2020-12-26_14h34.15.957,weird_font_low_1,2020.2.10,MacIntel,60,50.81126143,0.106565,99.99237805,7.50996,0.014362614,-0.423251715,1,0,0,10.549535,polygon,dollar,-0.003815739,0.02409013,1,0,0,1.364525,polygon_2,1,quarter,0,0,0,16,1,,,,,,,
,,,,,,,,,,,,,,,,,,,,,0.042,0.055,0.013,nation,state,SF,images/nation-state-sf.png,TT,A1SOFLJOEQB591,42,yes,2020-12-26_14h34.15.957,weird_font_low_1,2020.2.10,MacIntel,60,,,,,,,,,,,,state,-0.068935785,-0.018568979,1,0,0,1.67034,polygon_2,1,nation,0,1,1,9,1,,,,,,,
,,,,,,,,,,,,,,,,,,,,,0.016,0.012,0.004,taste,touch,flu,images/taste-touch-arial1.png,TT,A1SOFLJOEQB591,42,yes,2020-12-26_14h34.15.957,weird_font_low_1,2020.2.10,MacIntel,60,,,,,,,,,,,,food,-0.126938834,0.005282965,1,0,0,1.20907,polygon_2,1,taste,0,2,2,21,1,,,,,,,
,,,,,,,,,,,,,,,,,,,,,0.018,0.011,0.007,curve,shape,SF,images/curve-shape-sf.png,TT,A1SOFLJOEQB591,42,yes,2020-12-26_14h34.15.957,weird_font_low_1,2020.2.10,MacIntel,60,,,,,,,,,,,,shape,-0.117049352,-0.014057736,1,0,0,1.21134,polygon_2,1,curve,0,3,3,4,1,,,,,,,
,,,,,,,,,,,,,,,,,,,,,0.014,0.01,0.004,office,doctor ,SF,images/office-doctor-sf.png,TT,A1SOFLJOEQB591,42,yes,2020-12-26_14h34.15.957,weird_font_low_1,2020.2.10,MacIntel,60,,,,,,,,,,,,,-0.040810785,-0.018206936,1,0,0,1.29587,polygon_2,1,office,0,4,4,13,1,,,,,,,
,,,,,,,,,,,,,,,,,,,,,0.021,0.053,0.032,sheet,cover,flu,images/sheet-cover-arial1.png,TT,A1SOFLJOEQB591,42,yes,2020-12-26_14h34.15.957,weird_font_low_1,2020.2.10,MacIntel,60,,,,,,,,,,,,pillow,-0.126795922,0.0072742,1,0,0,5.47475,polygon_2,1,sheet,0,5,5,19,1,,,,,,,
,,,,,,,,,,,,,,,,,,,,,0.035,0.046,0.011,college,student,SF,images/college-student-sf.png,TT,A1SOFLJOEQB591,42,yes,2020-12-26_14h34.15.957,weird_font_low_1,2020.2.10,MacIntel,60,,,,,,,,,,,,school,-0.073246951,-0.009203506,1,0,0,1.20721,polygon_2,1,college,0,6,6,3,1,,,,,,,
,,,,,,,,,,,,,,,,,,,,,0.02,0.028,0.008,factory,product,flu,images/factory-product-arial1.png,TT,A1SOFLJOEQB591,42,yes,2020-12-26_14h34.15.957,weird_font_low_1,2020.2.10,MacIntel,60,,,,,,,,,,,,,-0.041401486,-0.054511242,1,0,0,1.42382,polygon_2,1,factory,0,7,7,6,1,,,,,,,
,,,,,,,,,,,,,,,,,,,,,0.015,0.028,0.013,range,rifle,SF,images/range-rifle-sf.png,TT,A1SOFLJOEQB591,42,yes,2020-12-26_14h34.15.957,weird_font_low_1,2020.2.10,MacIntel,60,,,,,,,,,,,,rifle,-0.028286966,-0.00978468,1,0,0,1.460165,polygon_2,1,range,0,8,8,17,1,,,,,,,
,,,,,,,,,,,,,,,,,,,,,0.033,0.027,0.006,engine,machine,SF,images/engine-machine-sf.png,TT,A1SOFLJOEQB591,42,yes,2020-12-26_14h34.15.957,weird_font_low_1,2020.2.10,MacIntel,60,,,,,,,,,,,,,-0.107145579,0.030297256,1,0,0,1.10942,polygon_2,1,engine,0,9,9,5,1,,,,,,,
,,,,,,,,,,,,,,,,,,,,,0.015,0.024,0.009,report,weather,SF,images/report-weather-sf.png,TT,A1SOFLJOEQB591,42,yes,2020-12-26_14h34.15.957,weird_font_low_1,2020.2.10,MacIntel,60,,,,,,,,,,,,,0.006183308,-0.309979992,1,0,0,1.60849,polygon_2,1,report,0,10,10,18,1,,,,,,,
,,,,,,,,,,,,,,,,,,,,,0.051,0.049,0.002,train,plane,SF,images/train-plane-sf.png,TT,A1SOFLJOEQB591,42,yes,2020-12-26_14h34.15.957,weird_font_low_1,2020.2.10,MacIntel,60,,,,,,,,,,,,plane,-0.090891768,0.038776677,1,0,0,1.02845,polygon_2,1,train,0,11,11,23,1,,,,,,,
,,,,,,,,,,,,,,,,,,,,,0.067,0.047,0.02,stick,branch,flu,images/stick-branch-arial1.png,TT,A1SOFLJOEQB591,42,yes,2020-12-26_14h34.15.957,weird_font_low_1,2020.2.10,MacIntel,60,,,,,,,,,,,,,0.017011242,-0.335908918,1,0,0,1.82839,polygon_2,1,stick,0,12,12,20,1,,,,,,,
,,,,,,,,,,,,,,,,,,,,,0.036,0.031,0.005,paint,picture,SF,images/paint-picture-sf.png,TT,A1SOFLJOEQB591,42,yes,2020-12-26_14h34.15.957,weird_font_low_1,2020.2.10,MacIntel,60,,,,,,,,,,,,,0.017011242,-0.335908918,1,0,0,0.96345,polygon_2,1,paint,0,13,13,14,1,,,,,,,
,,,,,,,,,,,,,,,,,,,,,0.02,0.029,0.009,angle,corner,flu,images/angle-corner-arial1.png,TT,A1SOFLJOEQB591,42,yes,2020-12-26_14h34.15.957,weird_font_low_1,2020.2.10,MacIntel,60,,,,,,,,,,,,corner,-0.074685595,0.015401105,1,0,0,1.044085,polygon_2,1,angle,0,14,14,0,1,,,,,,,
,,,,,,,,,,,,,,,,,,,,,0.014,0.021,0.007,object,symbol,flu,images/object-symbol-arial1.png,TT,A1SOFLJOEQB591,42,yes,2020-12-26_14h34.15.957,weird_font_low_1,2020.2.10,MacIntel,60,,,,,,,,,,,,,0.021312881,-0.358441311,1,0,0,1.47569,polygon_2,1,object,0,15,15,12,1,,,,,,,
,,,,,,,,,,,,,,,,,,,,,0.03,0.01,0.02,child,mother,flu,images/child-mother-arial1.png,TT,A1SOFLJOEQB591,42,yes,2020-12-26_14h34.15.957,weird_font_low_1,2020.2.10,MacIntel,60,,,,,,,,,,,,,0.013000191,-0.303839558,1,0,0,0.88031,polygon_2,1,child,0,16,16,2,1,,,,,,,
,,,,,,,,,,,,,,,,,,,,,0.027,0.041,0.014,group,meeting,flu,images/group-meeting-arial1.png,TT,A1SOFLJOEQB591,42,yes,2020-12-26_14h34.15.957,weird_font_low_1,2020.2.10,MacIntel,60,,,,,,,,,,,,,0.013000191,-0.303839558,1,0,0,0.81072,polygon_2,1,group,0,17,17,7,1,,,,,,,
,,,,,,,,,,,,,,,,,,,,,0.056,0.031,0.025,native,foreign,flu,images/native-foreign-arial1.png,TT,A1SOFLJOEQB591,42,yes,2020-12-26_14h34.15.957,weird_font_low_1,2020.2.10,MacIntel,60,,,,,,,,,,,,,0.013000191,-0.303839558,1,0,0,0.91364,polygon_2,1,native,0,18,18,10,1,,,,,,,
,,,,,,,,,,,,,,,,,,,,,0.04,0.019,0.021,block,street,flu,images/block-street-arial1.png,TT,A1SOFLJOEQB591,42,yes,2020-12-26_14h34.15.957,weird_font_low_1,2020.2.10,MacIntel,60,,,,,,,,,,,,,0.013000191,-0.303839558,1,0,0,0.91181,polygon_2,1,block,0,19,19,1,1,,,,,,,
,,,,,,,,,,,,,,,,,,,,,0.019,0.028,0.009,lunch,supper,SF,images/lunch-supper-sf.png,TT,A1SOFLJOEQB591,42,yes,2020-12-26_14h34.15.957,weird_font_low_1,2020.2.10,MacIntel,60,,,,,,,,,,,,dinner,-0.033603277,-0.046903582,1,0,0,1.25965,polygon_2,1,lunch,0,20,20,8,1,,,,,,,
,,,,,,,,,,,,,,,,,,,,,0.014,0.03,0.016,people,world,flu,images/people -world-arial1.png,TT,A1SOFLJOEQB591,42,yes,2020-12-26_14h34.15.957,weird_font_low_1,2020.2.10,MacIntel,60,,,,,,,,,,,,,-0.00033346,-0.323466082,1,0,0,0.79421,polygon_2,1,people,0,21,21,15,1,,,,,,,
,,,,,,,,,,,,,,,,,,,,,0.039,0.02,0.019,throat ,voice ,flu,images/throat-voice-arial1.png,TT,A1SOFLJOEQB591,42,yes,2020-12-26_14h34.15.957,weird_font_low_1,2020.2.10,MacIntel,60,,,,,,,,,,,,voice,-0.056678735,-0.021498666,1,0,0,1.129515,polygon_2,1,throat ,0,22,22,22,1,,,,,,,
,,,,,,,,,,,,,,,,,,,,,0.034,0.034,0,novel,story,SF,images/novel-story-sf.png,TT,A1SOFLJOEQB591,42,yes,2020-12-26_14h34.15.957,weird_font_low_1,2020.2.10,MacIntel,60,,,,,,,,,,,,,0.010041921,-0.293645198,1,0,0,0.79176,polygon_2,1,novel,0,23,23,11,1,,,,,,,
,,,,,,,,,,,,,,,,,,,,,,,,,,,,TT,A1SOFLJOEQB591,42,yes,2020-12-26_14h34.15.957,weird_font_low_1,2020.2.10,MacIntel,60,,,,,,,,,,,,,,,,,,,,,,,,,,,0.282512386,-0.149685595,1,0,0,1.995385,end_polygon
