key_resp.keys,key_resp.rt,mouse.x,mouse.y,mouse.leftButton,mouse.midButton,mouse.rightButton,mouse.time,mouse.clicked_name,mouse_4.x,mouse_4.y,mouse_4.leftButton,mouse_4.midButton,mouse_4.rightButton,mouse_4.time,mouse_4.clicked_name,cb.thisRepN,cb.thisTrialN,cb.thisN,cb.thisIndex,cb.ran,Itempairs,Forward,Backward,AbsoluteValue,cue1,targ1,font,images,participant,date,expName,psychopyVersion,OS,frameRate,study_id,session,atypic_slider.response,atypic_slider.rt,normal_slider.response,normal_slider.rt,mouse_3.x,mouse_3.y,mouse_3.leftButton,mouse_3.midButton,mouse_3.rightButton,mouse_3.time,mouse_3.clicked_name,textbox.text,mouse_5.x,mouse_5.y,mouse_5.leftButton,mouse_5.midButton,mouse_5.rightButton,mouse_5.time,mouse_5.clicked_name,correctAns,textbox_response,test.thisRepN,test.thisTrialN,test.thisN,test.thisIndex,test.ran,mouse_2.x,mouse_2.y,mouse_2.leftButton,mouse_2.midButton,mouse_2.rightButton,mouse_2.time,mouse_2.clicked_name
y,20.52886,-0.001555315,-0.31518724,1,0,0,16.20524,cont1,0.014791574,-0.284961953,1,0,0,5.870705,stop_stud,0,0,0,21,1,taste touch,0.016,0.012,0.004,taste,touch,SF,images/taste-touch-sf.png,5c313f27867f660001b0601c,2020-12-28_13h03.54.684,weird_font_low_2,2020.2.10,Linux x86_64,60,5fea2cd1e144229a3f973e6d,5fea480ad92c4a22a5d82ac0,,,,,,,,,,,,,,,,,,,,,,,,,,,,,,,,,
,,,,,,,,,0.00383487,-0.327654869,1,0,0,2.03061,stop_stud,0,1,1,8,1,lunch supper,0.019,0.028,0.009,lunch,supper,flu,images/lunch-supper-arial1.png,5c313f27867f660001b0601c,2020-12-28_13h03.54.684,weird_font_low_2,2020.2.10,Linux x86_64,60,5fea2cd1e144229a3f973e6d,5fea480ad92c4a22a5d82ac0,,,,,,,,,,,,,,,,,,,,,,,,,,,,,,,,,
,,,,,,,,,0.010408892,-0.311234531,1,0,0,3.6604,stop_stud,0,2,2,5,1,engine machine,0.033,0.027,0.006,engine,machine,flu,images/engine-machine-arial1.png,5c313f27867f660001b0601c,2020-12-28_13h03.54.684,weird_font_low_2,2020.2.10,Linux x86_64,60,5fea2cd1e144229a3f973e6d,5fea480ad92c4a22a5d82ac0,,,,,,,,,,,,,,,,,,,,,,,,,,,,,,,,,
,,,,,,,,,0.018078538,-0.311234531,1,0,0,2.34655,stop_stud,0,3,3,0,1,angle corner,0.02,0.029,0.009,angle,corner,SF,images/angle-corner-sf.png,5c313f27867f660001b0601c,2020-12-28_13h03.54.684,weird_font_low_2,2020.2.10,Linux x86_64,60,5fea2cd1e144229a3f973e6d,5fea480ad92c4a22a5d82ac0,,,,,,,,,,,,,,,,,,,,,,,,,,,,,,,,,
,,,,,,,,,0.011504516,-0.299192925,1,0,0,2.38984,stop_stud,0,4,4,1,1,block street,0.04,0.019,0.021,block,street,SF,images/block-street-sf.png,5c313f27867f660001b0601c,2020-12-28_13h03.54.684,weird_font_low_2,2020.2.10,Linux x86_64,60,5fea2cd1e144229a3f973e6d,5fea480ad92c4a22a5d82ac0,,,,,,,,,,,,,,,,,,,,,,,,,,,,,,,,,
,,,,,,,,,0.010408892,-0.299192925,1,0,0,1.594955,stop_stud,0,5,5,18,1,report weather,0.015,0.024,0.009,report,weather,flu,images/report-weather-arial1.png,5c313f27867f660001b0601c,2020-12-28_13h03.54.684,weird_font_low_2,2020.2.10,Linux x86_64,60,5fea2cd1e144229a3f973e6d,5fea480ad92c4a22a5d82ac0,,,,,,,,,,,,,,,,,,,,,,,,,,,,,,,,,
,,,,,,,,,0.015887197,-0.300287608,1,0,0,2.17704,stop_stud,0,6,6,2,1,child mother,0.03,0.01,0.02,child,mother,SF,images/child-mother-sf.png,5c313f27867f660001b0601c,2020-12-28_13h03.54.684,weird_font_low_2,2020.2.10,Linux x86_64,60,5fea2cd1e144229a3f973e6d,5fea480ad92c4a22a5d82ac0,,,,,,,,,,,,,,,,,,,,,,,,,,,,,,,,,
,,,,,,,,,0.011504516,-0.317802629,1,0,0,1.828485,stop_stud,0,7,7,16,1,quarter dollar,0.061,0.027,0.034,quarter,dollar,flu,images/quarter-dollar-arial1.png,5c313f27867f660001b0601c,2020-12-28_13h03.54.684,weird_font_low_2,2020.2.10,Linux x86_64,60,5fea2cd1e144229a3f973e6d,5fea480ad92c4a22a5d82ac0,,,,,,,,,,,,,,,,,,,,,,,,,,,,,,,,,
,,,,,,,,,0.010408892,-0.287151319,1,0,0,1.829015,stop_stud,0,8,8,19,1,sheet cover,0.021,0.053,0.032,sheet,cover,SF,images/sheet-cover-sf.png,5c313f27867f660001b0601c,2020-12-28_13h03.54.684,weird_font_low_2,2020.2.10,Linux x86_64,60,5fea2cd1e144229a3f973e6d,5fea480ad92c4a22a5d82ac0,,,,,,,,,,,,,,,,,,,,,,,,,,,,,,,,,
,,,,,,,,,0.012600233,-0.291530145,1,0,0,1.69175,stop_stud,0,9,9,3,1,college student ,0.035,0.046,0.011,college,student,flu,images/college - student-arial1.png,5c313f27867f660001b0601c,2020-12-28_13h03.54.684,weird_font_low_2,2020.2.10,Linux x86_64,60,5fea2cd1e144229a3f973e6d,5fea480ad92c4a22a5d82ac0,,,,,,,,,,,,,,,,,,,,,,,,,,,,,,,,,
,,,,,,,,,0.013695856,-0.293719511,1,0,0,1.8458,stop_stud,0,10,10,6,1,factory product,0.02,0.028,0.008,factory,product,SF,images/factory-product-sf.png,5c313f27867f660001b0601c,2020-12-28_13h03.54.684,weird_font_low_2,2020.2.10,Linux x86_64,60,5fea2cd1e144229a3f973e6d,5fea480ad92c4a22a5d82ac0,,,,,,,,,,,,,,,,,,,,,,,,,,,,,,,,,
,,,,,,,,,0.006026211,-0.297003559,1,0,0,2.162285,stop_stud,0,11,11,7,1,group meeting,0.027,0.041,0.014,group,meeting,SF,images/group-meeting-sf.png,5c313f27867f660001b0601c,2020-12-28_13h03.54.684,weird_font_low_2,2020.2.10,Linux x86_64,60,5fea2cd1e144229a3f973e6d,5fea480ad92c4a22a5d82ac0,,,,,,,,,,,,,,,,,,,,,,,,,,,,,,,,,
,,,,,,,,,-0.000547812,-0.309045166,1,0,0,3.0277,stop_stud,0,12,12,4,1,curve shape,0.018,0.011,0.007,curve,shape,flu,images/curve-shape-arial1.png,5c313f27867f660001b0601c,2020-12-28_13h03.54.684,weird_font_low_2,2020.2.10,Linux x86_64,60,5fea2cd1e144229a3f973e6d,5fea480ad92c4a22a5d82ac0,,,,,,,,,,,,,,,,,,,,,,,,,,,,,,,,,
,,,,,,,,,0.009313175,-0.302476974,1,0,0,1.92406,stop_stud,0,13,13,15,1,people world,0.014,0.03,0.016,people,world,SF,images/people-world-sf.png,5c313f27867f660001b0601c,2020-12-28_13h03.54.684,weird_font_low_2,2020.2.10,Linux x86_64,60,5fea2cd1e144229a3f973e6d,5fea480ad92c4a22a5d82ac0,,,,,,,,,,,,,,,,,,,,,,,,,,,,,,,,,
,,,,,,,,,0.007121834,-0.282772587,1,0,0,1.91307,stop_stud,0,14,14,10,1,native foreign,0.056,0.031,0.025,native,foreign,SF,images/native-foreign-sf.png,5c313f27867f660001b0601c,2020-12-28_13h03.54.684,weird_font_low_2,2020.2.10,Linux x86_64,60,5fea2cd1e144229a3f973e6d,5fea480ad92c4a22a5d82ac0,,,,,,,,,,,,,,,,,,,,,,,,,,,,,,,,,
,,,,,,,,,0.00383487,-0.282772587,1,0,0,2.075875,stop_stud,0,15,15,20,1,stick branch,0.067,0.047,0.02,stick,branch,SF,images/stick-branch-sf.png,5c313f27867f660001b0601c,2020-12-28_13h03.54.684,weird_font_low_2,2020.2.10,Linux x86_64,60,5fea2cd1e144229a3f973e6d,5fea480ad92c4a22a5d82ac0,,,,,,,,,,,,,,,,,,,,,,,,,,,,,,,,,
,,,,,,,,,0.011504516,-0.291530145,1,0,0,1.878945,stop_stud,0,16,16,22,1,throat voice,0.039,0.02,0.019,throat ,voice ,SF,images/throat-voice-sf.png,5c313f27867f660001b0601c,2020-12-28_13h03.54.684,weird_font_low_2,2020.2.10,Linux x86_64,60,5fea2cd1e144229a3f973e6d,5fea480ad92c4a22a5d82ac0,,,,,,,,,,,,,,,,,,,,,,,,,,,,,,,,,
,,,,,,,,,0.008217551,-0.298098242,1,0,0,1.613835,stop_stud,0,17,17,11,1,novel story,0.034,0.034,0,novel,story,flu,images/novel-story-arial1.png,5c313f27867f660001b0601c,2020-12-28_13h03.54.684,weird_font_low_2,2020.2.10,Linux x86_64,60,5fea2cd1e144229a3f973e6d,5fea480ad92c4a22a5d82ac0,,,,,,,,,,,,,,,,,,,,,,,,,,,,,,,,,
,,,,,,,,,0.011504516,-0.287151319,1,0,0,1.393615,stop_stud,0,18,18,23,1,train plane,0.051,0.049,0.002,train,plane,flu,images/train-plane-arial1.png,5c313f27867f660001b0601c,2020-12-28_13h03.54.684,weird_font_low_2,2020.2.10,Linux x86_64,60,5fea2cd1e144229a3f973e6d,5fea480ad92c4a22a5d82ac0,,,,,,,,,,,,,,,,,,,,,,,,,,,,,,,,,
,,,,,,,,,0.00383487,-0.280583221,1,0,0,1.844235,stop_stud,0,19,19,14,1,paint picture,0.036,0.031,0.005,paint,picture,flu,images/paint-picture-arial1.png,5c313f27867f660001b0601c,2020-12-28_13h03.54.684,weird_font_low_2,2020.2.10,Linux x86_64,60,5fea2cd1e144229a3f973e6d,5fea480ad92c4a22a5d82ac0,,,,,,,,,,,,,,,,,,,,,,,,,,,,,,,,,
,,,,,,,,,0.009313175,-0.284961953,1,0,0,2.942635,stop_stud,0,20,20,17,1,range rifle,0.015,0.028,0.013,range,rifle,flu,images/range-rifle-arial1.png,5c313f27867f660001b0601c,2020-12-28_13h03.54.684,weird_font_low_2,2020.2.10,Linux x86_64,60,5fea2cd1e144229a3f973e6d,5fea480ad92c4a22a5d82ac0,,,,,,,,,,,,,,,,,,,,,,,,,,,,,,,,,
,,,,,,,,,0.001643529,-0.294814194,1,0,0,1.62893,stop_stud,0,21,21,12,1,object symbol,0.014,0.021,0.007,object,symbol,SF,images/object-symbol-sf.png,5c313f27867f660001b0601c,2020-12-28_13h03.54.684,weird_font_low_2,2020.2.10,Linux x86_64,60,5fea2cd1e144229a3f973e6d,5fea480ad92c4a22a5d82ac0,,,,,,,,,,,,,,,,,,,,,,,,,,,,,,,,,
,,,,,,,,,-0.000547812,-0.311234531,1,0,0,3.725525,stop_stud,0,22,22,9,1,nation state,0.042,0.055,0.013,nation,state,flu,images/nation-state-arial1.png,5c313f27867f660001b0601c,2020-12-28_13h03.54.684,weird_font_low_2,2020.2.10,Linux x86_64,60,5fea2cd1e144229a3f973e6d,5fea480ad92c4a22a5d82ac0,,,,,,,,,,,,,,,,,,,,,,,,,,,,,,,,,
,,,,,,,,,-0.002739152,-0.288246002,1,0,0,3.35996,stop_stud,0,23,23,13,1,office doctor,0.014,0.01,0.004,office,doctor ,flu,images/office-doctor-arial1.png,5c313f27867f660001b0601c,2020-12-28_13h03.54.684,weird_font_low_2,2020.2.10,Linux x86_64,60,5fea2cd1e144229a3f973e6d,5fea480ad92c4a22a5d82ac0,,,,,,,,,,,,,,,,,,,,,,,,,,,,,,,,,
,,,,,,,,,,,,,,,,,,,,,angle corner,0.02,0.029,0.009,angle,corner,SF,images/angle-corner-sf.png,5c313f27867f660001b0601c,2020-12-28_13h03.54.684,weird_font_low_2,2020.2.10,Linux x86_64,60,5fea2cd1e144229a3f973e6d,5fea480ad92c4a22a5d82ac0,49.72608475,0.073955,29.52953274,21.791875,-0.003439975,-0.402470146,1,0,0,29.02614,polygon,corner,0.034803111,0.014537323,1,0,0,3.009675,polygon_2,1,angle,0,0,0,0,1,,,,,,,
,,,,,,,,,,,,,,,,,,,,,engine machine,0.033,0.027,0.006,engine,machine,flu,images/engine-machine-arial1.png,5c313f27867f660001b0601c,2020-12-28_13h03.54.684,weird_font_low_2,2020.2.10,Linux x86_64,60,5fea2cd1e144229a3f973e6d,5fea480ad92c4a22a5d82ac0,,,,,,,,,,,,machine,0.058618202,0.01826691,1,0,0,1.84265,polygon_2,1,engine,0,1,1,5,1,,,,,,,
,,,,,,,,,,,,,,,,,,,,,curve shape,0.018,0.011,0.007,curve,shape,flu,images/curve-shape-arial1.png,5c313f27867f660001b0601c,2020-12-28_13h03.54.684,weird_font_low_2,2020.2.10,Linux x86_64,60,5fea2cd1e144229a3f973e6d,5fea480ad92c4a22a5d82ac0,,,,,,,,,,,,shape,0.013695856,0.001846572,1,0,0,5.37817,polygon_2,1,curve,0,2,2,4,1,,,,,,,
,,,,,,,,,,,,,,,,,,,,,child mother,0.03,0.01,0.02,child,mother,SF,images/child-mother-sf.png,5c313f27867f660001b0601c,2020-12-28_13h03.54.684,weird_font_low_2,2020.2.10,Linux x86_64,60,5fea2cd1e144229a3f973e6d,5fea480ad92c4a22a5d82ac0,,,,,,,,,,,,mother,0.06190526,0.006225351,1,0,0,1.705075,polygon_2,1,child,0,3,3,2,1,,,,,,,
,,,,,,,,,,,,,,,,,,,,,report weather,0.015,0.024,0.009,report,weather,flu,images/report-weather-arial1.png,5c313f27867f660001b0601c,2020-12-28_13h03.54.684,weird_font_low_2,2020.2.10,Linux x86_64,60,5fea2cd1e144229a3f973e6d,5fea480ad92c4a22a5d82ac0,,,,,,,,,,,,,-0.011504422,-0.311234531,1,0,0,3.533885,polygon_2,1,report,0,4,4,18,1,,,,,,,
,,,,,,,,,,,,,,,,,,,,,paint picture,0.036,0.031,0.005,paint,picture,flu,images/paint-picture-arial1.png,5c313f27867f660001b0601c,2020-12-28_13h03.54.684,weird_font_low_2,2020.2.10,Linux x86_64,60,5fea2cd1e144229a3f973e6d,5fea480ad92c4a22a5d82ac0,,,,,,,,,,,,,0.000547906,-0.297003559,1,0,0,2.32108,polygon_2,1,paint,0,5,5,14,1,,,,,,,
,,,,,,,,,,,,,,,,,,,,,train plane,0.051,0.049,0.002,train,plane,flu,images/train-plane-arial1.png,5c313f27867f660001b0601c,2020-12-28_13h03.54.684,weird_font_low_2,2020.2.10,Linux x86_64,60,5fea2cd1e144229a3f973e6d,5fea480ad92c4a22a5d82ac0,,,,,,,,,,,,plane,0.094775278,0.006225351,1,0,0,4.121885,polygon_2,1,train,0,6,6,23,1,,,,,,,
,,,,,,,,,,,,,,,,,,,,,sheet cover,0.021,0.053,0.032,sheet,cover,SF,images/sheet-cover-sf.png,5c313f27867f660001b0601c,2020-12-28_13h03.54.684,weird_font_low_2,2020.2.10,Linux x86_64,60,5fea2cd1e144229a3f973e6d,5fea480ad92c4a22a5d82ac0,,,,,,,,,,,,paper,0.128740919,0.007320034,1,0,0,1.88361,polygon_2,1,sheet,0,7,7,19,1,,,,,,,
,,,,,,,,,,,,,,,,,,,,,nation state,0.042,0.055,0.013,nation,state,flu,images/nation-state-arial1.png,5c313f27867f660001b0601c,2020-12-28_13h03.54.684,weird_font_low_2,2020.2.10,Linux x86_64,60,5fea2cd1e144229a3f973e6d,5fea480ad92c4a22a5d82ac0,,,,,,,,,,,,states,0.175854605,0.007320034,1,0,0,6.11272,polygon_2,1,nation,0,8,8,9,1,,,,,,,
,,,,,,,,,,,,,,,,,,,,,stick branch,0.067,0.047,0.02,stick,branch,SF,images/stick-branch-sf.png,5c313f27867f660001b0601c,2020-12-28_13h03.54.684,weird_font_low_2,2020.2.10,Linux x86_64,60,5fea2cd1e144229a3f973e6d,5fea480ad92c4a22a5d82ac0,,,,,,,,,,,,,0.010408892,-0.294814194,1,0,0,4.481865,polygon_2,1,stick,0,9,9,20,1,,,,,,,
,,,,,,,,,,,,,,,,,,,,,novel story,0.034,0.034,0,novel,story,flu,images/novel-story-arial1.png,5c313f27867f660001b0601c,2020-12-28_13h03.54.684,weird_font_low_2,2020.2.10,Linux x86_64,60,5fea2cd1e144229a3f973e6d,5fea480ad92c4a22a5d82ac0,,,,,,,,,,,,story,0.172567641,-0.00253216,1,0,0,2.724225,polygon_2,1,novel,0,10,10,11,1,,,,,,,
,,,,,,,,,,,,,,,,,,,,,group meeting,0.027,0.041,0.014,group,meeting,SF,images/group-meeting-sf.png,5c313f27867f660001b0601c,2020-12-28_13h03.54.684,weird_font_low_2,2020.2.10,Linux x86_64,60,5fea2cd1e144229a3f973e6d,5fea480ad92c4a22a5d82ac0,,,,,,,,,,,,meeting,0.09367956,-0.009100304,1,0,0,1.91845,polygon_2,1,group,0,11,11,7,1,,,,,,,
,,,,,,,,,,,,,,,,,,,,,native foreign,0.056,0.031,0.025,native,foreign,SF,images/native-foreign-sf.png,5c313f27867f660001b0601c,2020-12-28_13h03.54.684,weird_font_low_2,2020.2.10,Linux x86_64,60,5fea2cd1e144229a3f973e6d,5fea480ad92c4a22a5d82ac0,,,,,,,,,,,,,0.019174255,-0.311234531,1,0,0,1.87977,polygon_2,1,native,0,12,12,10,1,,,,,,,
,,,,,,,,,,,,,,,,,,,,,factory product,0.02,0.028,0.008,factory,product,SF,images/factory-product-sf.png,5c313f27867f660001b0601c,2020-12-28_13h03.54.684,weird_font_low_2,2020.2.10,Linux x86_64,60,5fea2cd1e144229a3f973e6d,5fea480ad92c4a22a5d82ac0,,,,,,,,,,,,product,0.461823779,-0.084633849,1,0,0,1.620825,polygon_2,1,factory,0,13,13,6,1,,,,,,,
,,,,,,,,,,,,,,,,,,,,,lunch supper,0.019,0.028,0.009,lunch,supper,flu,images/lunch-supper-arial1.png,5c313f27867f660001b0601c,2020-12-28_13h03.54.684,weird_font_low_2,2020.2.10,Linux x86_64,60,5fea2cd1e144229a3f973e6d,5fea480ad92c4a22a5d82ac0,,,,,,,,,,,,dinner,0.092583937,-0.013479083,1,0,0,2.67987,polygon_2,1,lunch,0,14,14,8,1,,,,,,,
,,,,,,,,,,,,,,,,,,,,,range rifle,0.015,0.028,0.013,range,rifle,flu,images/range-rifle-arial1.png,5c313f27867f660001b0601c,2020-12-28_13h03.54.684,weird_font_low_2,2020.2.10,Linux x86_64,60,5fea2cd1e144229a3f973e6d,5fea480ad92c4a22a5d82ac0,,,,,,,,,,,,rifle,0.119975556,-0.005816255,1,0,0,1.552705,polygon_2,1,range,0,15,15,17,1,,,,,,,
,,,,,,,,,,,,,,,,,,,,,office doctor,0.014,0.01,0.004,office,doctor ,flu,images/office-doctor-arial1.png,5c313f27867f660001b0601c,2020-12-28_13h03.54.684,weird_font_low_2,2020.2.10,Linux x86_64,60,5fea2cd1e144229a3f973e6d,5fea480ad92c4a22a5d82ac0,,,,,,,,,,,,,0.001643529,-0.298098242,1,0,0,2.861195,polygon_2,1,office,0,16,16,13,1,,,,,,,
,,,,,,,,,,,,,,,,,,,,,taste touch,0.016,0.012,0.004,taste,touch,SF,images/taste-touch-sf.png,5c313f27867f660001b0601c,2020-12-28_13h03.54.684,weird_font_low_2,2020.2.10,Linux x86_64,60,5fea2cd1e144229a3f973e6d,5fea480ad92c4a22a5d82ac0,,,,,,,,,,,,,0.020269879,-0.309045166,1,0,0,6.63579,polygon_2,1,taste,0,17,17,21,1,,,,,,,
,,,,,,,,,,,,,,,,,,,,,throat voice,0.039,0.02,0.019,throat ,voice ,SF,images/throat-voice-sf.png,5c313f27867f660001b0601c,2020-12-28_13h03.54.684,weird_font_low_2,2020.2.10,Linux x86_64,60,5fea2cd1e144229a3f973e6d,5fea480ad92c4a22a5d82ac0,,,,,,,,,,,,voice,0.164897995,-0.003626843,1,0,0,1.955555,polygon_2,1,throat ,0,18,18,22,1,,,,,,,
,,,,,,,,,,,,,,,,,,,,,college student ,0.035,0.046,0.011,college,student,flu,images/college - student-arial1.png,5c313f27867f660001b0601c,2020-12-28_13h03.54.684,weird_font_low_2,2020.2.10,Linux x86_64,60,5fea2cd1e144229a3f973e6d,5fea480ad92c4a22a5d82ac0,,,,,,,,,,,,student,0.115592968,-0.00253216,1,0,0,1.51441,polygon_2,1,college,0,19,19,3,1,,,,,,,
,,,,,,,,,,,,,,,,,,,,,quarter dollar,0.061,0.027,0.034,quarter,dollar,flu,images/quarter-dollar-arial1.png,5c313f27867f660001b0601c,2020-12-28_13h03.54.684,weird_font_low_2,2020.2.10,Linux x86_64,60,5fea2cd1e144229a3f973e6d,5fea480ad92c4a22a5d82ac0,,,,,,,,,,,,dollar,0.225159632,-0.01128967,1,0,0,7.45838,polygon_2,1,quarter,0,20,20,16,1,,,,,,,
,,,,,,,,,,,,,,,,,,,,,people world,0.014,0.03,0.016,people,world,SF,images/people-world-sf.png,5c313f27867f660001b0601c,2020-12-28_13h03.54.684,weird_font_low_2,2020.2.10,Linux x86_64,60,5fea2cd1e144229a3f973e6d,5fea480ad92c4a22a5d82ac0,,,,,,,,,,,,,0.021365596,-0.293719511,1,0,0,5.731345,polygon_2,1,people,0,21,21,15,1,,,,,,,
,,,,,,,,,,,,,,,,,,,,,block street,0.04,0.019,0.021,block,street,SF,images/block-street-sf.png,5c313f27867f660001b0601c,2020-12-28_13h03.54.684,weird_font_low_2,2020.2.10,Linux x86_64,60,5fea2cd1e144229a3f973e6d,5fea480ad92c4a22a5d82ac0,,,,,,,,,,,,,0.153941291,-0.009100304,1,0,0,3.47027,polygon_2,1,block,0,22,22,1,1,,,,,,,
,,,,,,,,,,,,,,,,,,,,,object symbol,0.014,0.021,0.007,object,symbol,SF,images/object-symbol-sf.png,5c313f27867f660001b0601c,2020-12-28_13h03.54.684,weird_font_low_2,2020.2.10,Linux x86_64,60,5fea2cd1e144229a3f973e6d,5fea480ad92c4a22a5d82ac0,,,,,,,,,,,,,-0.012600139,-0.317802629,1,0,0,3.74772,polygon_2,1,object,0,23,23,12,1,,,,,,,
,,,,,,,,,,,,,,,,,,,,,,,,,,,,,5c313f27867f660001b0601c,2020-12-28_13h03.54.684,weird_font_low_2,2020.2.10,Linux x86_64,60,5fea2cd1e144229a3f973e6d,5fea480ad92c4a22a5d82ac0,,,,,,,,,,,,,,,,,,,,,,,,,,,0.004930587,-0.307950483,1,0,0,2.194025,end_polygon
