key_resp.keys,key_resp.rt,mouse.x,mouse.y,mouse.leftButton,mouse.midButton,mouse.rightButton,mouse.time,mouse.clicked_name,cb.thisRepN,cb.thisTrialN,cb.thisN,cb.thisIndex,cb.ran,Forward,Backward,AbsoluteValue,cue1,targ1,font,images,participant,date,expName,psychopyVersion,OS,frameRate,study_id,session,atypic_slider.response,atypic_slider.rt,normal_slider.response,normal_slider.rt,mouse_3.x,mouse_3.y,mouse_3.leftButton,mouse_3.midButton,mouse_3.rightButton,mouse_3.time,mouse_3.clicked_name,textbox.text,mouse_5.x,mouse_5.y,mouse_5.leftButton,mouse_5.midButton,mouse_5.rightButton,mouse_5.time,mouse_5.clicked_name,correctAns,textbox_response,test.thisRepN,test.thisTrialN,test.thisN,test.thisIndex,test.ran,mouse_2.x,mouse_2.y,mouse_2.leftButton,mouse_2.midButton,mouse_2.rightButton,mouse_2.time,mouse_2.clicked_name
y,6.694535,0.014929288,-0.312847856,1,0,0,7.481625,cont1,0,0,0,16,1,0.061,0.027,0.034,quarter,dollar,SF,images/quarter-dollar-sf.png,596c36966956b40001c59d4e,2020-12-28_17h57.44.635,weird_font_low_1,2020.2.10,MacIntel,60,5fea53ffbc4c4da6e0d31b4a,5fea62bf509c7e278feaeb37,,,,,,,,,,,,,,,,,,,,,,,,,,,,,,,,,
,,,,,,,,,0,1,1,11,1,0.034,0.034,0,novel,story,SF,images/novel-story-sf.png,596c36966956b40001c59d4e,2020-12-28_17h57.44.635,weird_font_low_1,2020.2.10,MacIntel,60,5fea53ffbc4c4da6e0d31b4a,5fea62bf509c7e278feaeb37,,,,,,,,,,,,,,,,,,,,,,,,,,,,,,,,,
,,,,,,,,,0,2,2,12,1,0.014,0.021,0.007,object,symbol,flu,images/object-symbol-arial1.png,596c36966956b40001c59d4e,2020-12-28_17h57.44.635,weird_font_low_1,2020.2.10,MacIntel,60,5fea53ffbc4c4da6e0d31b4a,5fea62bf509c7e278feaeb37,,,,,,,,,,,,,,,,,,,,,,,,,,,,,,,,,
,,,,,,,,,0,3,3,14,1,0.036,0.031,0.005,paint,picture,SF,images/paint-picture-sf.png,596c36966956b40001c59d4e,2020-12-28_17h57.44.635,weird_font_low_1,2020.2.10,MacIntel,60,5fea53ffbc4c4da6e0d31b4a,5fea62bf509c7e278feaeb37,,,,,,,,,,,,,,,,,,,,,,,,,,,,,,,,,
,,,,,,,,,0,4,4,13,1,0.014,0.01,0.004,office,doctor ,SF,images/office-doctor-sf.png,596c36966956b40001c59d4e,2020-12-28_17h57.44.635,weird_font_low_1,2020.2.10,MacIntel,60,5fea53ffbc4c4da6e0d31b4a,5fea62bf509c7e278feaeb37,,,,,,,,,,,,,,,,,,,,,,,,,,,,,,,,,
,,,,,,,,,0,5,5,19,1,0.021,0.053,0.032,sheet,cover,flu,images/sheet-cover-arial1.png,596c36966956b40001c59d4e,2020-12-28_17h57.44.635,weird_font_low_1,2020.2.10,MacIntel,60,5fea53ffbc4c4da6e0d31b4a,5fea62bf509c7e278feaeb37,,,,,,,,,,,,,,,,,,,,,,,,,,,,,,,,,
,,,,,,,,,0,6,6,17,1,0.015,0.028,0.013,range,rifle,SF,images/range-rifle-sf.png,596c36966956b40001c59d4e,2020-12-28_17h57.44.635,weird_font_low_1,2020.2.10,MacIntel,60,5fea53ffbc4c4da6e0d31b4a,5fea62bf509c7e278feaeb37,,,,,,,,,,,,,,,,,,,,,,,,,,,,,,,,,
,,,,,,,,,0,7,7,7,1,0.027,0.041,0.014,group,meeting,flu,images/group-meeting-arial1.png,596c36966956b40001c59d4e,2020-12-28_17h57.44.635,weird_font_low_1,2020.2.10,MacIntel,60,5fea53ffbc4c4da6e0d31b4a,5fea62bf509c7e278feaeb37,,,,,,,,,,,,,,,,,,,,,,,,,,,,,,,,,
,,,,,,,,,0,8,8,1,1,0.04,0.019,0.021,block,street,flu,images/block-street-arial1.png,596c36966956b40001c59d4e,2020-12-28_17h57.44.635,weird_font_low_1,2020.2.10,MacIntel,60,5fea53ffbc4c4da6e0d31b4a,5fea62bf509c7e278feaeb37,,,,,,,,,,,,,,,,,,,,,,,,,,,,,,,,,
,,,,,,,,,0,9,9,23,1,0.051,0.049,0.002,train,plane,SF,images/train-plane-sf.png,596c36966956b40001c59d4e,2020-12-28_17h57.44.635,weird_font_low_1,2020.2.10,MacIntel,60,5fea53ffbc4c4da6e0d31b4a,5fea62bf509c7e278feaeb37,,,,,,,,,,,,,,,,,,,,,,,,,,,,,,,,,
,,,,,,,,,0,10,10,4,1,0.018,0.011,0.007,curve,shape,SF,images/curve-shape-sf.png,596c36966956b40001c59d4e,2020-12-28_17h57.44.635,weird_font_low_1,2020.2.10,MacIntel,60,5fea53ffbc4c4da6e0d31b4a,5fea62bf509c7e278feaeb37,,,,,,,,,,,,,,,,,,,,,,,,,,,,,,,,,
,,,,,,,,,0,11,11,18,1,0.015,0.024,0.009,report,weather,SF,images/report-weather-sf.png,596c36966956b40001c59d4e,2020-12-28_17h57.44.635,weird_font_low_1,2020.2.10,MacIntel,60,5fea53ffbc4c4da6e0d31b4a,5fea62bf509c7e278feaeb37,,,,,,,,,,,,,,,,,,,,,,,,,,,,,,,,,
,,,,,,,,,0,12,12,15,1,0.014,0.03,0.016,people,world,flu,images/people -world-arial1.png,596c36966956b40001c59d4e,2020-12-28_17h57.44.635,weird_font_low_1,2020.2.10,MacIntel,60,5fea53ffbc4c4da6e0d31b4a,5fea62bf509c7e278feaeb37,,,,,,,,,,,,,,,,,,,,,,,,,,,,,,,,,
,,,,,,,,,0,13,13,20,1,0.067,0.047,0.02,stick,branch,flu,images/stick-branch-arial1.png,596c36966956b40001c59d4e,2020-12-28_17h57.44.635,weird_font_low_1,2020.2.10,MacIntel,60,5fea53ffbc4c4da6e0d31b4a,5fea62bf509c7e278feaeb37,,,,,,,,,,,,,,,,,,,,,,,,,,,,,,,,,
,,,,,,,,,0,14,14,6,1,0.02,0.028,0.008,factory,product,flu,images/factory-product-arial1.png,596c36966956b40001c59d4e,2020-12-28_17h57.44.635,weird_font_low_1,2020.2.10,MacIntel,60,5fea53ffbc4c4da6e0d31b4a,5fea62bf509c7e278feaeb37,,,,,,,,,,,,,,,,,,,,,,,,,,,,,,,,,
,,,,,,,,,0,15,15,2,1,0.03,0.01,0.02,child,mother,flu,images/child-mother-arial1.png,596c36966956b40001c59d4e,2020-12-28_17h57.44.635,weird_font_low_1,2020.2.10,MacIntel,60,5fea53ffbc4c4da6e0d31b4a,5fea62bf509c7e278feaeb37,,,,,,,,,,,,,,,,,,,,,,,,,,,,,,,,,
,,,,,,,,,0,16,16,5,1,0.033,0.027,0.006,engine,machine,SF,images/engine-machine-sf.png,596c36966956b40001c59d4e,2020-12-28_17h57.44.635,weird_font_low_1,2020.2.10,MacIntel,60,5fea53ffbc4c4da6e0d31b4a,5fea62bf509c7e278feaeb37,,,,,,,,,,,,,,,,,,,,,,,,,,,,,,,,,
,,,,,,,,,0,17,17,21,1,0.016,0.012,0.004,taste,touch,flu,images/taste-touch-arial1.png,596c36966956b40001c59d4e,2020-12-28_17h57.44.635,weird_font_low_1,2020.2.10,MacIntel,60,5fea53ffbc4c4da6e0d31b4a,5fea62bf509c7e278feaeb37,,,,,,,,,,,,,,,,,,,,,,,,,,,,,,,,,
,,,,,,,,,0,18,18,10,1,0.056,0.031,0.025,native,foreign,flu,images/native-foreign-arial1.png,596c36966956b40001c59d4e,2020-12-28_17h57.44.635,weird_font_low_1,2020.2.10,MacIntel,60,5fea53ffbc4c4da6e0d31b4a,5fea62bf509c7e278feaeb37,,,,,,,,,,,,,,,,,,,,,,,,,,,,,,,,,
,,,,,,,,,0,19,19,3,1,0.035,0.046,0.011,college,student,SF,images/college-student-sf.png,596c36966956b40001c59d4e,2020-12-28_17h57.44.635,weird_font_low_1,2020.2.10,MacIntel,60,5fea53ffbc4c4da6e0d31b4a,5fea62bf509c7e278feaeb37,,,,,,,,,,,,,,,,,,,,,,,,,,,,,,,,,
,,,,,,,,,0,20,20,8,1,0.019,0.028,0.009,lunch,supper,SF,images/lunch-supper-sf.png,596c36966956b40001c59d4e,2020-12-28_17h57.44.635,weird_font_low_1,2020.2.10,MacIntel,60,5fea53ffbc4c4da6e0d31b4a,5fea62bf509c7e278feaeb37,,,,,,,,,,,,,,,,,,,,,,,,,,,,,,,,,
,,,,,,,,,0,21,21,9,1,0.042,0.055,0.013,nation,state,SF,images/nation-state-sf.png,596c36966956b40001c59d4e,2020-12-28_17h57.44.635,weird_font_low_1,2020.2.10,MacIntel,60,5fea53ffbc4c4da6e0d31b4a,5fea62bf509c7e278feaeb37,,,,,,,,,,,,,,,,,,,,,,,,,,,,,,,,,
,,,,,,,,,0,22,22,22,1,0.039,0.02,0.019,throat ,voice ,flu,images/throat-voice-arial1.png,596c36966956b40001c59d4e,2020-12-28_17h57.44.635,weird_font_low_1,2020.2.10,MacIntel,60,5fea53ffbc4c4da6e0d31b4a,5fea62bf509c7e278feaeb37,,,,,,,,,,,,,,,,,,,,,,,,,,,,,,,,,
,,,,,,,,,0,23,23,0,1,0.02,0.029,0.009,angle,corner,flu,images/angle-corner-arial1.png,596c36966956b40001c59d4e,2020-12-28_17h57.44.635,weird_font_low_1,2020.2.10,MacIntel,60,5fea53ffbc4c4da6e0d31b4a,5fea62bf509c7e278feaeb37,,,,,,,,,,,,,,,,,,,,,,,,,,,,,,,,,
,,,,,,,,,,,,,,0.02,0.028,0.008,factory,product,flu,images/factory-product-arial1.png,596c36966956b40001c59d4e,2020-12-28_17h57.44.635,weird_font_low_1,2020.2.10,MacIntel,60,5fea53ffbc4c4da6e0d31b4a,5fea62bf509c7e278feaeb37,64.53809307,6.692085,58.40499544,5.82914,0.003410128,-0.401283075,1,0,0,12.996925,polygon,machine,0.132966469,-0.008513914,1,0,0,0.91756,polygon_2,1,factory,0,0,0,6,1,,,,,,,
,,,,,,,,,,,,,,0.019,0.028,0.009,lunch,supper,SF,images/lunch-supper-sf.png,596c36966956b40001c59d4e,2020-12-28_17h57.44.635,weird_font_low_1,2020.2.10,MacIntel,60,5fea53ffbc4c4da6e0d31b4a,5fea62bf509c7e278feaeb37,,,,,,,,,,,,school,-0.000273723,-0.022502281,1,0,0,0.976765,polygon_2,1,lunch,0,1,1,8,1,,,,,,,
,,,,,,,,,,,,,,0.036,0.031,0.005,paint,picture,SF,images/paint-picture-sf.png,596c36966956b40001c59d4e,2020-12-28_17h57.44.635,weird_font_low_1,2020.2.10,MacIntel,60,5fea53ffbc4c4da6e0d31b4a,5fea62bf509c7e278feaeb37,,,,,,,,,,,,picture,0.068288093,-0.015796077,1,0,0,0.67767,polygon_2,1,paint,0,2,2,14,1,,,,,,,
,,,,,,,,,,,,,,0.04,0.019,0.021,block,street,flu,images/block-street-arial1.png,596c36966956b40001c59d4e,2020-12-28_17h57.44.635,weird_font_low_1,2020.2.10,MacIntel,60,5fea53ffbc4c4da6e0d31b4a,5fea62bf509c7e278feaeb37,,,,,,,,,,,,street,0.154847172,-0.020996807,1,0,0,0.681105,polygon_2,1,block,0,3,3,1,1,,,,,,,
,,,,,,,,,,,,,,0.014,0.03,0.016,people,world,flu,images/people -world-arial1.png,596c36966956b40001c59d4e,2020-12-28_17h57.44.635,weird_font_low_1,2020.2.10,MacIntel,60,5fea53ffbc4c4da6e0d31b4a,5fea62bf509c7e278feaeb37,,,,,,,,,,,,world,0.042466925,-0.011439325,1,0,0,0.7457,polygon_2,1,people,0,4,4,15,1,,,,,,,
,,,,,,,,,,,,,,0.027,0.041,0.014,group,meeting,flu,images/group-meeting-arial1.png,596c36966956b40001c59d4e,2020-12-28_17h57.44.635,weird_font_low_1,2020.2.10,MacIntel,60,5fea53ffbc4c4da6e0d31b4a,5fea62bf509c7e278feaeb37,,,,,,,,,,,,meeting,0.015482436,-0.0232151,1,0,0,0.69461,polygon_2,1,group,0,5,5,7,1,,,,,,,
,,,,,,,,,,,,,,0.014,0.021,0.007,object,symbol,flu,images/object-symbol-arial1.png,596c36966956b40001c59d4e,2020-12-28_17h57.44.635,weird_font_low_1,2020.2.10,MacIntel,60,5fea53ffbc4c4da6e0d31b4a,5fea62bf509c7e278feaeb37,,,,,,,,,,,,thing,0.082630018,-0.029961223,1,0,0,0.913195,polygon_2,1,object,0,6,6,12,1,,,,,,,
,,,,,,,,,,,,,,0.061,0.027,0.034,quarter,dollar,SF,images/quarter-dollar-sf.png,596c36966956b40001c59d4e,2020-12-28_17h57.44.635,weird_font_low_1,2020.2.10,MacIntel,60,5fea53ffbc4c4da6e0d31b4a,5fea62bf509c7e278feaeb37,,,,,,,,,,,,dollar,0.098420392,0.030343294,1,0,0,0.61234,polygon_2,1,quarter,0,7,7,16,1,,,,,,,
,,,,,,,,,,,,,,0.014,0.01,0.004,office,doctor ,SF,images/office-doctor-sf.png,596c36966956b40001c59d4e,2020-12-28_17h57.44.635,weird_font_low_1,2020.2.10,MacIntel,60,5fea53ffbc4c4da6e0d31b4a,5fea62bf509c7e278feaeb37,,,,,,,,,,,,meeting,0.063914234,0.008519617,1,0,0,0.626195,polygon_2,1,office,0,8,8,13,1,,,,,,,
,,,,,,,,,,,,,,0.051,0.049,0.002,train,plane,SF,images/train-plane-sf.png,596c36966956b40001c59d4e,2020-12-28_17h57.44.635,weird_font_low_1,2020.2.10,MacIntel,60,5fea53ffbc4c4da6e0d31b4a,5fea62bf509c7e278feaeb37,,,,,,,,,,,,plane,0.030069571,-0.009728558,1,0,0,0.681555,polygon_2,1,train,0,9,9,23,1,,,,,,,
,,,,,,,,,,,,,,0.018,0.011,0.007,curve,shape,SF,images/curve-shape-sf.png,596c36966956b40001c59d4e,2020-12-28_17h57.44.635,weird_font_low_1,2020.2.10,MacIntel,60,5fea53ffbc4c4da6e0d31b4a,5fea62bf509c7e278feaeb37,,,,,,,,,,,,circle,0.133662181,-0.002406478,1,0,0,0.595235,polygon_2,1,curve,0,10,10,4,1,,,,,,,
,,,,,,,,,,,,,,0.039,0.02,0.019,throat ,voice ,flu,images/throat-voice-arial1.png,596c36966956b40001c59d4e,2020-12-28_17h57.44.635,weird_font_low_1,2020.2.10,MacIntel,60,5fea53ffbc4c4da6e0d31b4a,5fea62bf509c7e278feaeb37,,,,,,,,,,,,mouth,0.072450958,-0.027166971,1,0,0,0.61555,polygon_2,1,throat ,0,11,11,22,1,,,,,,,
,,,,,,,,,,,,,,0.02,0.029,0.009,angle,corner,flu,images/angle-corner-arial1.png,596c36966956b40001c59d4e,2020-12-28_17h57.44.635,weird_font_low_1,2020.2.10,MacIntel,60,5fea53ffbc4c4da6e0d31b4a,5fea62bf509c7e278feaeb37,,,,,,,,,,,,curve,0.165106068,-0.009814097,1,0,0,0.826315,polygon_2,1,angle,0,12,12,0,1,,,,,,,
,,,,,,,,,,,,,,0.034,0.034,0,novel,story,SF,images/novel-story-sf.png,596c36966956b40001c59d4e,2020-12-28_17h57.44.635,weird_font_low_1,2020.2.10,MacIntel,60,5fea53ffbc4c4da6e0d31b4a,5fea62bf509c7e278feaeb37,,,,,,,,,,,,author,0.119770757,0.026208942,1,0,0,0.811165,polygon_2,1,novel,0,13,13,11,1,,,,,,,
,,,,,,,,,,,,,,0.015,0.028,0.013,range,rifle,SF,images/range-rifle-sf.png,596c36966956b40001c59d4e,2020-12-28_17h57.44.635,weird_font_low_1,2020.2.10,MacIntel,60,5fea53ffbc4c4da6e0d31b4a,5fea62bf509c7e278feaeb37,,,,,,,,,,,,rifle,0.09607094,-0.022627737,1,0,0,0.64395,polygon_2,1,range,0,14,14,17,1,,,,,,,
,,,,,,,,,,,,,,0.067,0.047,0.02,stick,branch,flu,images/stick-branch-arial1.png,596c36966956b40001c59d4e,2020-12-28_17h57.44.635,weird_font_low_1,2020.2.10,MacIntel,60,5fea53ffbc4c4da6e0d31b4a,5fea62bf509c7e278feaeb37,,,,,,,,,,,,tree,0.246344662,-0.014912181,1,0,0,0.616455,polygon_2,1,stick,0,15,15,20,1,,,,,,,
,,,,,,,,,,,,,,0.03,0.01,0.02,child,mother,flu,images/child-mother-arial1.png,596c36966956b40001c59d4e,2020-12-28_17h57.44.635,weird_font_low_1,2020.2.10,MacIntel,60,5fea53ffbc4c4da6e0d31b4a,5fea62bf509c7e278feaeb37,,,,,,,,,,,,mother,0.17131615,-0.018533303,1,0,0,0.7277,polygon_2,1,child,0,16,16,2,1,,,,,,,
,,,,,,,,,,,,,,0.042,0.055,0.013,nation,state,SF,images/nation-state-sf.png,596c36966956b40001c59d4e,2020-12-28_17h57.44.635,weird_font_low_1,2020.2.10,MacIntel,60,5fea53ffbc4c4da6e0d31b4a,5fea62bf509c7e278feaeb37,,,,,,,,,,,,people,0.176032162,-0.012135036,1,0,0,0.67562,polygon_2,1,nation,0,17,17,9,1,,,,,,,
,,,,,,,,,,,,,,0.056,0.031,0.025,native,foreign,flu,images/native-foreign-arial1.png,596c36966956b40001c59d4e,2020-12-28_17h57.44.635,weird_font_low_1,2020.2.10,MacIntel,60,5fea53ffbc4c4da6e0d31b4a,5fea62bf509c7e278feaeb37,,,,,,,,,,,,people,0.127948221,0.018601734,1,0,0,0.81344,polygon_2,1,native,0,18,18,10,1,,,,,,,
,,,,,,,,,,,,,,0.015,0.024,0.009,report,weather,SF,images/report-weather-sf.png,596c36966956b40001c59d4e,2020-12-28_17h57.44.635,weird_font_low_1,2020.2.10,MacIntel,60,5fea53ffbc4c4da6e0d31b4a,5fea62bf509c7e278feaeb37,,,,,,,,,,,,paper,0.100091241,0.050769845,1,0,0,0.843215,polygon_2,1,report,0,19,19,18,1,,,,,,,
,,,,,,,,,,,,,,0.021,0.053,0.032,sheet,cover,flu,images/sheet-cover-arial1.png,596c36966956b40001c59d4e,2020-12-28_17h57.44.635,weird_font_low_1,2020.2.10,MacIntel,60,5fea53ffbc4c4da6e0d31b4a,5fea62bf509c7e278feaeb37,,,,,,,,,,,,cover,0.208810447,-0.019542655,1,0,0,0.9592,polygon_2,1,sheet,0,20,20,19,1,,,,,,,
,,,,,,,,,,,,,,0.016,0.012,0.004,taste,touch,flu,images/taste-touch-arial1.png,596c36966956b40001c59d4e,2020-12-28_17h57.44.635,weird_font_low_1,2020.2.10,MacIntel,60,5fea53ffbc4c4da6e0d31b4a,5fea62bf509c7e278feaeb37,,,,,,,,,,,,smell,0.147074589,-0.030440237,1,0,0,0.69262,polygon_2,1,taste,0,21,21,21,1,,,,,,,
,,,,,,,,,,,,,,0.035,0.046,0.011,college,student,SF,images/college-student-sf.png,596c36966956b40001c59d4e,2020-12-28_17h57.44.635,weird_font_low_1,2020.2.10,MacIntel,60,5fea53ffbc4c4da6e0d31b4a,5fea62bf509c7e278feaeb37,,,,,,,,,,,,student,0.197456661,-0.030320484,1,0,0,0.69784,polygon_2,1,college,0,22,22,3,1,,,,,,,
,,,,,,,,,,,,,,0.033,0.027,0.006,engine,machine,SF,images/engine-machine-sf.png,596c36966956b40001c59d4e,2020-12-28_17h57.44.635,weird_font_low_1,2020.2.10,MacIntel,60,5fea53ffbc4c4da6e0d31b4a,5fea62bf509c7e278feaeb37,,,,,,,,,,,,machine,0.211388002,-0.032972172,1,0,0,1.01388,polygon_2,1,engine,0,23,23,5,1,,,,,,,
,,,,,,,,,,,,,,,,,,,,,596c36966956b40001c59d4e,2020-12-28_17h57.44.635,weird_font_low_1,2020.2.10,MacIntel,60,5fea53ffbc4c4da6e0d31b4a,5fea62bf509c7e278feaeb37,,,,,,,,,,,,,,,,,,,,,,,,,,,-0.001653741,-0.304562044,1,0,0,1.49627,end_polygon
