key_resp.keys,key_resp.rt,mouse.x,mouse.y,mouse.leftButton,mouse.midButton,mouse.rightButton,mouse.time,mouse.clicked_name,cb.thisRepN,cb.thisTrialN,cb.thisN,cb.thisIndex,cb.ran,Forward,Backward,AbsoluteValue,cue1,targ1,font,images,participant,date,expName,psychopyVersion,OS,frameRate,study_id,session,atypic_slider.response,atypic_slider.rt,normal_slider.response,normal_slider.rt,mouse_3.x,mouse_3.y,mouse_3.leftButton,mouse_3.midButton,mouse_3.rightButton,mouse_3.time,mouse_3.clicked_name,textbox.text,mouse_5.x,mouse_5.y,mouse_5.leftButton,mouse_5.midButton,mouse_5.rightButton,mouse_5.time,mouse_5.clicked_name,correctAns,textbox_response,test.thisRepN,test.thisTrialN,test.thisN,test.thisIndex,test.ran,mouse_2.x,mouse_2.y,mouse_2.leftButton,mouse_2.midButton,mouse_2.rightButton,mouse_2.time,mouse_2.clicked_name
y,5.512905,-0.012949673,-0.285814862,1,0,0,11.213475,cont1,0,0,0,17,1,0.015,0.028,0.013,range,rifle,SF,images/range-rifle-sf.png,5fac996c2cd1ad2b50292dcf,2020-12-28_16h27.47.824,weird_font_low_1,2020.2.10,MacIntel,60,5fea53ffbc4c4da6e0d31b4a,5fea5b993ce806a78bfe719c,,,,,,,,,,,,,,,,,,,,,,,,,,,,,,,,,
,,,,,,,,,0,1,1,19,1,0.021,0.053,0.032,sheet,cover,flu,images/sheet-cover-arial1.png,5fac996c2cd1ad2b50292dcf,2020-12-28_16h27.47.824,weird_font_low_1,2020.2.10,MacIntel,60,5fea53ffbc4c4da6e0d31b4a,5fea5b993ce806a78bfe719c,,,,,,,,,,,,,,,,,,,,,,,,,,,,,,,,,
,,,,,,,,,0,2,2,0,1,0.02,0.029,0.009,angle,corner,flu,images/angle-corner-arial1.png,5fac996c2cd1ad2b50292dcf,2020-12-28_16h27.47.824,weird_font_low_1,2020.2.10,MacIntel,60,5fea53ffbc4c4da6e0d31b4a,5fea5b993ce806a78bfe719c,,,,,,,,,,,,,,,,,,,,,,,,,,,,,,,,,
,,,,,,,,,0,3,3,8,1,0.019,0.028,0.009,lunch,supper,SF,images/lunch-supper-sf.png,5fac996c2cd1ad2b50292dcf,2020-12-28_16h27.47.824,weird_font_low_1,2020.2.10,MacIntel,60,5fea53ffbc4c4da6e0d31b4a,5fea5b993ce806a78bfe719c,,,,,,,,,,,,,,,,,,,,,,,,,,,,,,,,,
,,,,,,,,,0,4,4,20,1,0.067,0.047,0.02,stick,branch,flu,images/stick-branch-arial1.png,5fac996c2cd1ad2b50292dcf,2020-12-28_16h27.47.824,weird_font_low_1,2020.2.10,MacIntel,60,5fea53ffbc4c4da6e0d31b4a,5fea5b993ce806a78bfe719c,,,,,,,,,,,,,,,,,,,,,,,,,,,,,,,,,
,,,,,,,,,0,5,5,21,1,0.016,0.012,0.004,taste,touch,flu,images/taste-touch-arial1.png,5fac996c2cd1ad2b50292dcf,2020-12-28_16h27.47.824,weird_font_low_1,2020.2.10,MacIntel,60,5fea53ffbc4c4da6e0d31b4a,5fea5b993ce806a78bfe719c,,,,,,,,,,,,,,,,,,,,,,,,,,,,,,,,,
,,,,,,,,,0,6,6,16,1,0.061,0.027,0.034,quarter,dollar,SF,images/quarter-dollar-sf.png,5fac996c2cd1ad2b50292dcf,2020-12-28_16h27.47.824,weird_font_low_1,2020.2.10,MacIntel,60,5fea53ffbc4c4da6e0d31b4a,5fea5b993ce806a78bfe719c,,,,,,,,,,,,,,,,,,,,,,,,,,,,,,,,,
,,,,,,,,,0,7,7,10,1,0.056,0.031,0.025,native,foreign,flu,images/native-foreign-arial1.png,5fac996c2cd1ad2b50292dcf,2020-12-28_16h27.47.824,weird_font_low_1,2020.2.10,MacIntel,60,5fea53ffbc4c4da6e0d31b4a,5fea5b993ce806a78bfe719c,,,,,,,,,,,,,,,,,,,,,,,,,,,,,,,,,
,,,,,,,,,0,8,8,6,1,0.02,0.028,0.008,factory,product,flu,images/factory-product-arial1.png,5fac996c2cd1ad2b50292dcf,2020-12-28_16h27.47.824,weird_font_low_1,2020.2.10,MacIntel,60,5fea53ffbc4c4da6e0d31b4a,5fea5b993ce806a78bfe719c,,,,,,,,,,,,,,,,,,,,,,,,,,,,,,,,,
,,,,,,,,,0,9,9,22,1,0.039,0.02,0.019,throat ,voice ,flu,images/throat-voice-arial1.png,5fac996c2cd1ad2b50292dcf,2020-12-28_16h27.47.824,weird_font_low_1,2020.2.10,MacIntel,60,5fea53ffbc4c4da6e0d31b4a,5fea5b993ce806a78bfe719c,,,,,,,,,,,,,,,,,,,,,,,,,,,,,,,,,
,,,,,,,,,0,10,10,23,1,0.051,0.049,0.002,train,plane,SF,images/train-plane-sf.png,5fac996c2cd1ad2b50292dcf,2020-12-28_16h27.47.824,weird_font_low_1,2020.2.10,MacIntel,60,5fea53ffbc4c4da6e0d31b4a,5fea5b993ce806a78bfe719c,,,,,,,,,,,,,,,,,,,,,,,,,,,,,,,,,
,,,,,,,,,0,11,11,18,1,0.015,0.024,0.009,report,weather,SF,images/report-weather-sf.png,5fac996c2cd1ad2b50292dcf,2020-12-28_16h27.47.824,weird_font_low_1,2020.2.10,MacIntel,60,5fea53ffbc4c4da6e0d31b4a,5fea5b993ce806a78bfe719c,,,,,,,,,,,,,,,,,,,,,,,,,,,,,,,,,
,,,,,,,,,0,12,12,14,1,0.036,0.031,0.005,paint,picture,SF,images/paint-picture-sf.png,5fac996c2cd1ad2b50292dcf,2020-12-28_16h27.47.824,weird_font_low_1,2020.2.10,MacIntel,60,5fea53ffbc4c4da6e0d31b4a,5fea5b993ce806a78bfe719c,,,,,,,,,,,,,,,,,,,,,,,,,,,,,,,,,
,,,,,,,,,0,13,13,5,1,0.033,0.027,0.006,engine,machine,SF,images/engine-machine-sf.png,5fac996c2cd1ad2b50292dcf,2020-12-28_16h27.47.824,weird_font_low_1,2020.2.10,MacIntel,60,5fea53ffbc4c4da6e0d31b4a,5fea5b993ce806a78bfe719c,,,,,,,,,,,,,,,,,,,,,,,,,,,,,,,,,
,,,,,,,,,0,14,14,4,1,0.018,0.011,0.007,curve,shape,SF,images/curve-shape-sf.png,5fac996c2cd1ad2b50292dcf,2020-12-28_16h27.47.824,weird_font_low_1,2020.2.10,MacIntel,60,5fea53ffbc4c4da6e0d31b4a,5fea5b993ce806a78bfe719c,,,,,,,,,,,,,,,,,,,,,,,,,,,,,,,,,
,,,,,,,,,0,15,15,1,1,0.04,0.019,0.021,block,street,flu,images/block-street-arial1.png,5fac996c2cd1ad2b50292dcf,2020-12-28_16h27.47.824,weird_font_low_1,2020.2.10,MacIntel,60,5fea53ffbc4c4da6e0d31b4a,5fea5b993ce806a78bfe719c,,,,,,,,,,,,,,,,,,,,,,,,,,,,,,,,,
,,,,,,,,,0,16,16,15,1,0.014,0.03,0.016,people,world,flu,images/people -world-arial1.png,5fac996c2cd1ad2b50292dcf,2020-12-28_16h27.47.824,weird_font_low_1,2020.2.10,MacIntel,60,5fea53ffbc4c4da6e0d31b4a,5fea5b993ce806a78bfe719c,,,,,,,,,,,,,,,,,,,,,,,,,,,,,,,,,
,,,,,,,,,0,17,17,9,1,0.042,0.055,0.013,nation,state,SF,images/nation-state-sf.png,5fac996c2cd1ad2b50292dcf,2020-12-28_16h27.47.824,weird_font_low_1,2020.2.10,MacIntel,60,5fea53ffbc4c4da6e0d31b4a,5fea5b993ce806a78bfe719c,,,,,,,,,,,,,,,,,,,,,,,,,,,,,,,,,
,,,,,,,,,0,18,18,11,1,0.034,0.034,0,novel,story,SF,images/novel-story-sf.png,5fac996c2cd1ad2b50292dcf,2020-12-28_16h27.47.824,weird_font_low_1,2020.2.10,MacIntel,60,5fea53ffbc4c4da6e0d31b4a,5fea5b993ce806a78bfe719c,,,,,,,,,,,,,,,,,,,,,,,,,,,,,,,,,
,,,,,,,,,0,19,19,2,1,0.03,0.01,0.02,child,mother,flu,images/child-mother-arial1.png,5fac996c2cd1ad2b50292dcf,2020-12-28_16h27.47.824,weird_font_low_1,2020.2.10,MacIntel,60,5fea53ffbc4c4da6e0d31b4a,5fea5b993ce806a78bfe719c,,,,,,,,,,,,,,,,,,,,,,,,,,,,,,,,,
,,,,,,,,,0,20,20,12,1,0.014,0.021,0.007,object,symbol,flu,images/object-symbol-arial1.png,5fac996c2cd1ad2b50292dcf,2020-12-28_16h27.47.824,weird_font_low_1,2020.2.10,MacIntel,60,5fea53ffbc4c4da6e0d31b4a,5fea5b993ce806a78bfe719c,,,,,,,,,,,,,,,,,,,,,,,,,,,,,,,,,
,,,,,,,,,0,21,21,13,1,0.014,0.01,0.004,office,doctor ,SF,images/office-doctor-sf.png,5fac996c2cd1ad2b50292dcf,2020-12-28_16h27.47.824,weird_font_low_1,2020.2.10,MacIntel,60,5fea53ffbc4c4da6e0d31b4a,5fea5b993ce806a78bfe719c,,,,,,,,,,,,,,,,,,,,,,,,,,,,,,,,,
,,,,,,,,,0,22,22,3,1,0.035,0.046,0.011,college,student,SF,images/college-student-sf.png,5fac996c2cd1ad2b50292dcf,2020-12-28_16h27.47.824,weird_font_low_1,2020.2.10,MacIntel,60,5fea53ffbc4c4da6e0d31b4a,5fea5b993ce806a78bfe719c,,,,,,,,,,,,,,,,,,,,,,,,,,,,,,,,,
,,,,,,,,,0,23,23,7,1,0.027,0.041,0.014,group,meeting,flu,images/group-meeting-arial1.png,5fac996c2cd1ad2b50292dcf,2020-12-28_16h27.47.824,weird_font_low_1,2020.2.10,MacIntel,60,5fea53ffbc4c4da6e0d31b4a,5fea5b993ce806a78bfe719c,,,,,,,,,,,,,,,,,,,,,,,,,,,,,,,,,
,,,,,,,,,,,,,,0.027,0.041,0.014,group,meeting,flu,images/group-meeting-arial1.png,5fac996c2cd1ad2b50292dcf,2020-12-28_16h27.47.824,weird_font_low_1,2020.2.10,MacIntel,60,5fea53ffbc4c4da6e0d31b4a,5fea5b993ce806a78bfe719c,21.0878452,13.21053,30.06041061,9.192225,-0.014035247,-0.410169876,1,0,0,18.062345,polygon,people,-0.053374818,-0.025753997,1,0,0,1.327415,polygon_2,1,group,0,0,0,7,1,,,,,,,
,,,,,,,,,,,,,,0.033,0.027,0.006,engine,machine,SF,images/engine-machine-sf.png,5fac996c2cd1ad2b50292dcf,2020-12-28_16h27.47.824,weird_font_low_1,2020.2.10,MacIntel,60,5fea53ffbc4c4da6e0d31b4a,5fea5b993ce806a78bfe719c,,,,,,,,,,,,machine,-0.067228379,-0.000785792,1,0,0,1.261325,polygon_2,1,engine,0,1,1,5,1,,,,,,,
,,,,,,,,,,,,,,0.021,0.053,0.032,sheet,cover,flu,images/sheet-cover-arial1.png,5fac996c2cd1ad2b50292dcf,2020-12-28_16h27.47.824,weird_font_low_1,2020.2.10,MacIntel,60,5fea53ffbc4c4da6e0d31b4a,5fea5b993ce806a78bfe719c,,,,,,,,,,,,,0.009234193,-0.295148983,1,0,0,1.495165,polygon_2,1,sheet,0,2,2,19,1,,,,,,,
,,,,,,,,,,,,,,0.02,0.029,0.009,angle,corner,flu,images/angle-corner-arial1.png,5fac996c2cd1ad2b50292dcf,2020-12-28_16h27.47.824,weird_font_low_1,2020.2.10,MacIntel,60,5fea53ffbc4c4da6e0d31b4a,5fea5b993ce806a78bfe719c,,,,,,,,,,,,corner,-0.08600109,-0.023432958,1,0,0,1.03147,polygon_2,1,angle,0,3,3,0,1,,,,,,,
,,,,,,,,,,,,,,0.014,0.021,0.007,object,symbol,flu,images/object-symbol-arial1.png,5fac996c2cd1ad2b50292dcf,2020-12-28_16h27.47.824,weird_font_low_1,2020.2.10,MacIntel,60,5fea53ffbc4c4da6e0d31b4a,5fea5b993ce806a78bfe719c,,,,,,,,,,,,,0.00517351,-0.309175145,1,0,0,3.17911,polygon_2,1,object,0,4,4,12,1,,,,,,,
,,,,,,,,,,,,,,0.015,0.028,0.013,range,rifle,SF,images/range-rifle-sf.png,5fac996c2cd1ad2b50292dcf,2020-12-28_16h27.47.824,weird_font_low_1,2020.2.10,MacIntel,60,5fea53ffbc4c4da6e0d31b4a,5fea5b993ce806a78bfe719c,,,,,,,,,,,,rifle,-0.150931141,-0.038435683,1,0,0,1.53041,polygon_2,1,range,0,5,5,17,1,,,,,,,
,,,,,,,,,,,,,,0.014,0.01,0.004,office,doctor ,SF,images/office-doctor-sf.png,5fac996c2cd1ad2b50292dcf,2020-12-28_16h27.47.824,weird_font_low_1,2020.2.10,MacIntel,60,5fea53ffbc4c4da6e0d31b4a,5fea5b993ce806a78bfe719c,,,,,,,,,,,,,0.002016715,-0.319526708,1,0,0,0.96229,polygon_2,1,office,0,6,6,13,1,,,,,,,
,,,,,,,,,,,,,,0.067,0.047,0.02,stick,branch,flu,images/stick-branch-arial1.png,5fac996c2cd1ad2b50292dcf,2020-12-28_16h27.47.824,weird_font_low_1,2020.2.10,MacIntel,60,5fea53ffbc4c4da6e0d31b4a,5fea5b993ce806a78bfe719c,,,,,,,,,,,,,0.002016715,-0.319526708,1,0,0,0.781405,polygon_2,1,stick,0,7,7,20,1,,,,,,,
,,,,,,,,,,,,,,0.015,0.024,0.009,report,weather,SF,images/report-weather-sf.png,5fac996c2cd1ad2b50292dcf,2020-12-28_16h27.47.824,weird_font_low_1,2020.2.10,MacIntel,60,5fea53ffbc4c4da6e0d31b4a,5fea5b993ce806a78bfe719c,,,,,,,,,,,,weather,-0.063553779,-0.003333939,1,0,0,1.080815,polygon_2,1,report,0,8,8,18,1,,,,,,,
,,,,,,,,,,,,,,0.018,0.011,0.007,curve,shape,SF,images/curve-shape-sf.png,5fac996c2cd1ad2b50292dcf,2020-12-28_16h27.47.824,weird_font_low_1,2020.2.10,MacIntel,60,5fea53ffbc4c4da6e0d31b4a,5fea5b993ce806a78bfe719c,,,,,,,,,,,,,-0.005309775,-0.299150618,1,0,0,0.21316,polygon_2,1,curve,0,9,9,4,1,,,,,,,
,,,,,,,,,,,,,,0.04,0.019,0.021,block,street,flu,images/block-street-arial1.png,5fac996c2cd1ad2b50292dcf,2020-12-28_16h27.47.824,weird_font_low_1,2020.2.10,MacIntel,60,5fea53ffbc4c4da6e0d31b4a,5fea5b993ce806a78bfe719c,,,,,,,,,,,,,0.004682958,-0.309170603,1,0,0,2.33089,polygon_2,1,block,0,10,10,1,1,,,,,,,
,,,,,,,,,,,,,,0.014,0.03,0.016,people,world,flu,images/people -world-arial1.png,5fac996c2cd1ad2b50292dcf,2020-12-28_16h27.47.824,weird_font_low_1,2020.2.10,MacIntel,60,5fea53ffbc4c4da6e0d31b4a,5fea5b993ce806a78bfe719c,,,,,,,,,,,,,0.009715661,-0.313794513,1,0,0,2.497855,polygon_2,1,people,0,11,11,15,1,,,,,,,
,,,,,,,,,,,,,,0.019,0.028,0.009,lunch,supper,SF,images/lunch-supper-sf.png,5fac996c2cd1ad2b50292dcf,2020-12-28_16h27.47.824,weird_font_low_1,2020.2.10,MacIntel,60,5fea53ffbc4c4da6e0d31b4a,5fea5b993ce806a78bfe719c,,,,,,,,,,,,meal,-0.067337391,-0.028415698,1,0,0,1.53174,polygon_2,1,lunch,0,12,12,8,1,,,,,,,
,,,,,,,,,,,,,,0.03,0.01,0.02,child,mother,flu,images/child-mother-arial1.png,5fac996c2cd1ad2b50292dcf,2020-12-28_16h27.47.824,weird_font_low_1,2020.2.10,MacIntel,60,5fea53ffbc4c4da6e0d31b4a,5fea5b993ce806a78bfe719c,,,,,,,,,,,,,-0.010760356,-0.316451672,1,0,0,1.61304,polygon_2,1,child,0,13,13,2,1,,,,,,,
,,,,,,,,,,,,,,0.039,0.02,0.019,throat ,voice ,flu,images/throat-voice-arial1.png,5fac996c2cd1ad2b50292dcf,2020-12-28_16h27.47.824,weird_font_low_1,2020.2.10,MacIntel,60,5fea53ffbc4c4da6e0d31b4a,5fea5b993ce806a78bfe719c,,,,,,,,,,,,voice,-0.046547965,-0.023828125,1,0,0,2.029935,polygon_2,1,throat ,0,14,14,22,1,,,,,,,
,,,,,,,,,,,,,,0.051,0.049,0.002,train,plane,SF,images/train-plane-sf.png,5fac996c2cd1ad2b50292dcf,2020-12-28_16h27.47.824,weird_font_low_1,2020.2.10,MacIntel,60,5fea53ffbc4c4da6e0d31b4a,5fea5b993ce806a78bfe719c,,,,,,,,,,,,plane,-0.072928779,0.010110828,1,0,0,1.496575,polygon_2,1,train,0,15,15,23,1,,,,,,,
,,,,,,,,,,,,,,0.02,0.028,0.008,factory,product,flu,images/factory-product-arial1.png,5fac996c2cd1ad2b50292dcf,2020-12-28_16h27.47.824,weird_font_low_1,2020.2.10,MacIntel,60,5fea53ffbc4c4da6e0d31b4a,5fea5b993ce806a78bfe719c,,,,,,,,,,,,,-0.00798056,-0.317723474,1,0,0,2.463255,polygon_2,1,factory,0,16,16,6,1,,,,,,,
,,,,,,,,,,,,,,0.016,0.012,0.004,taste,touch,flu,images/taste-touch-arial1.png,5fac996c2cd1ad2b50292dcf,2020-12-28_16h27.47.824,weird_font_low_1,2020.2.10,MacIntel,60,5fea53ffbc4c4da6e0d31b4a,5fea5b993ce806a78bfe719c,,,,,,,,,,,,,0.004310501,-0.309456759,1,0,0,1.69718,polygon_2,1,taste,0,17,17,21,1,,,,,,,
,,,,,,,,,,,,,,0.042,0.055,0.013,nation,state,SF,images/nation-state-sf.png,5fac996c2cd1ad2b50292dcf,2020-12-28_16h27.47.824,weird_font_low_1,2020.2.10,MacIntel,60,5fea53ffbc4c4da6e0d31b4a,5fea5b993ce806a78bfe719c,,,,,,,,,,,,flag,-0.111219113,-0.021507086,1,0,0,2.597445,polygon_2,1,nation,0,18,18,9,1,,,,,,,
,,,,,,,,,,,,,,0.035,0.046,0.011,college,student,SF,images/college-student-sf.png,5fac996c2cd1ad2b50292dcf,2020-12-28_16h27.47.824,weird_font_low_1,2020.2.10,MacIntel,60,5fea53ffbc4c4da6e0d31b4a,5fea5b993ce806a78bfe719c,,,,,,,,,,,,,0.00094931,-0.307762536,1,0,0,3.51264,polygon_2,1,college,0,19,19,3,1,,,,,,,
,,,,,,,,,,,,,,0.036,0.031,0.005,paint,picture,SF,images/paint-picture-sf.png,5fac996c2cd1ad2b50292dcf,2020-12-28_16h27.47.824,weird_font_low_1,2020.2.10,MacIntel,60,5fea53ffbc4c4da6e0d31b4a,5fea5b993ce806a78bfe719c,,,,,,,,,,,,picture,-0.101458031,-0.031858648,1,0,0,1.247025,polygon_2,1,paint,0,20,20,14,1,,,,,,,
,,,,,,,,,,,,,,0.056,0.031,0.025,native,foreign,flu,images/native-foreign-arial1.png,5fac996c2cd1ad2b50292dcf,2020-12-28_16h27.47.824,weird_font_low_1,2020.2.10,MacIntel,60,5fea53ffbc4c4da6e0d31b4a,5fea5b993ce806a78bfe719c,,,,,,,,,,,,language,-0.102793423,-0.021507086,1,0,0,1.579505,polygon_2,1,native,0,21,21,10,1,,,,,,,
,,,,,,,,,,,,,,0.061,0.027,0.034,quarter,dollar,SF,images/quarter-dollar-sf.png,5fac996c2cd1ad2b50292dcf,2020-12-28_16h27.47.824,weird_font_low_1,2020.2.10,MacIntel,60,5fea53ffbc4c4da6e0d31b4a,5fea5b993ce806a78bfe719c,,,,,,,,,,,,dollar,-0.059020712,-0.047229288,1,0,0,1.24497,polygon_2,1,quarter,0,22,22,16,1,,,,,,,
,,,,,,,,,,,,,,0.034,0.034,0,novel,story,SF,images/novel-story-sf.png,5fac996c2cd1ad2b50292dcf,2020-12-28_16h27.47.824,weird_font_low_1,2020.2.10,MacIntel,60,5fea53ffbc4c4da6e0d31b4a,5fea5b993ce806a78bfe719c,,,,,,,,,,,,,0.00996548,-0.306072856,1,0,0,0.878705,polygon_2,1,novel,0,23,23,11,1,,,,,,,
,,,,,,,,,,,,,,,,,,,,,5fac996c2cd1ad2b50292dcf,2020-12-28_16h27.47.824,weird_font_low_1,2020.2.10,MacIntel,60,5fea53ffbc4c4da6e0d31b4a,5fea5b993ce806a78bfe719c,,,,,,,,,,,,,,,,,,,,,,,,,,,0.007539971,-0.313499273,1,0,0,0.963725,end_polygon
