key_resp.keys,key_resp.rt,mouse.x,mouse.y,mouse.leftButton,mouse.midButton,mouse.rightButton,mouse.time,mouse.clicked_name,cb.thisRepN,cb.thisTrialN,cb.thisN,cb.thisIndex,cb.ran,images,cue,target,font,participant,date,expName,psychopyVersion,OS,frameRate,study_id,session,atypic_slider.response,atypic_slider.rt,normal_slider.response,normal_slider.rt,mouse_3.x,mouse_3.y,mouse_3.leftButton,mouse_3.midButton,mouse_3.rightButton,mouse_3.time,mouse_3.clicked_name,textbox.text,mouse_5.x,mouse_5.y,mouse_5.leftButton,mouse_5.midButton,mouse_5.rightButton,mouse_5.time,mouse_5.clicked_name,correctAns,textbox_response,test.thisRepN,test.thisTrialN,test.thisN,test.thisIndex,test.ran,pairs,mouse_2.x,mouse_2.y,mouse_2.leftButton,mouse_2.midButton,mouse_2.rightButton,mouse_2.time,mouse_2.clicked_name
y,9.548195,0.002247191,-0.340449438,1,0,0,18.1784,cont1,0,0,0,0,1,images/crash-sf.jpeg,accident,crash,sf,5e5835c55bb31204ae424619,2020-12-21_15h12.38.458,weird_font1,2020.2.10,Win32,60,5fe0f7ff878eaaaf22a7b442,5fe101a0bfd89b2fa6b3addb,,,,,,,,,,,,,,,,,,,,,,,,,,,,,,,,,,
,,,,,,,,,0,1,1,9,1,images/destory-sf.jpeg,kill,destroy,sf,5e5835c55bb31204ae424619,2020-12-21_15h12.38.458,weird_font1,2020.2.10,Win32,60,5fe0f7ff878eaaaf22a7b442,5fe101a0bfd89b2fa6b3addb,,,,,,,,,,,,,,,,,,,,,,,,,,,,,,,,,,
,,,,,,,,,0,2,2,1,1,images/deaf-a.jpeg,blind,deaf,a,5e5835c55bb31204ae424619,2020-12-21_15h12.38.458,weird_font1,2020.2.10,Win32,60,5fe0f7ff878eaaaf22a7b442,5fe101a0bfd89b2fa6b3addb,,,,,,,,,,,,,,,,,,,,,,,,,,,,,,,,,,
,,,,,,,,,0,3,3,14,1,images/trail-sf.jpeg,path,trail,sf,5e5835c55bb31204ae424619,2020-12-21_15h12.38.458,weird_font1,2020.2.10,Win32,60,5fe0f7ff878eaaaf22a7b442,5fe101a0bfd89b2fa6b3addb,,,,,,,,,,,,,,,,,,,,,,,,,,,,,,,,,,
,,,,,,,,,0,4,4,2,1,images/potato-a.jpeg,chip,potato,a,5e5835c55bb31204ae424619,2020-12-21_15h12.38.458,weird_font1,2020.2.10,Win32,60,5fe0f7ff878eaaaf22a7b442,5fe101a0bfd89b2fa6b3addb,,,,,,,,,,,,,,,,,,,,,,,,,,,,,,,,,,
,,,,,,,,,0,5,5,11,1,images/contact-sf.jpeg,lens,contact,sf,5e5835c55bb31204ae424619,2020-12-21_15h12.38.458,weird_font1,2020.2.10,Win32,60,5fe0f7ff878eaaaf22a7b442,5fe101a0bfd89b2fa6b3addb,,,,,,,,,,,,,,,,,,,,,,,,,,,,,,,,,,
,,,,,,,,,0,6,6,18,1,images/candle-a.jpeg,wax,candle,a,5e5835c55bb31204ae424619,2020-12-21_15h12.38.458,weird_font1,2020.2.10,Win32,60,5fe0f7ff878eaaaf22a7b442,5fe101a0bfd89b2fa6b3addb,,,,,,,,,,,,,,,,,,,,,,,,,,,,,,,,,,
,,,,,,,,,0,7,7,5,1,images/yard-a.jpeg,fence,yard,a,5e5835c55bb31204ae424619,2020-12-21_15h12.38.458,weird_font1,2020.2.10,Win32,60,5fe0f7ff878eaaaf22a7b442,5fe101a0bfd89b2fa6b3addb,,,,,,,,,,,,,,,,,,,,,,,,,,,,,,,,,,
,,,,,,,,,0,8,8,17,1,images/patience-sf.jpeg,virtue,patience,sf,5e5835c55bb31204ae424619,2020-12-21_15h12.38.458,weird_font1,2020.2.10,Win32,60,5fe0f7ff878eaaaf22a7b442,5fe101a0bfd89b2fa6b3addb,,,,,,,,,,,,,,,,,,,,,,,,,,,,,,,,,,
,,,,,,,,,0,9,9,8,1,images/happiness-a.jpeg,joy,happiness,a,5e5835c55bb31204ae424619,2020-12-21_15h12.38.458,weird_font1,2020.2.10,Win32,60,5fe0f7ff878eaaaf22a7b442,5fe101a0bfd89b2fa6b3addb,,,,,,,,,,,,,,,,,,,,,,,,,,,,,,,,,,
,,,,,,,,,0,10,10,16,1,images/wheel-a.jpeg,tire,wheel,a,5e5835c55bb31204ae424619,2020-12-21_15h12.38.458,weird_font1,2020.2.10,Win32,60,5fe0f7ff878eaaaf22a7b442,5fe101a0bfd89b2fa6b3addb,,,,,,,,,,,,,,,,,,,,,,,,,,,,,,,,,,
,,,,,,,,,0,11,11,12,1,images/article-sf.jpeg,magazine,article,sf,5e5835c55bb31204ae424619,2020-12-21_15h12.38.458,weird_font1,2020.2.10,Win32,60,5fe0f7ff878eaaaf22a7b442,5fe101a0bfd89b2fa6b3addb,,,,,,,,,,,,,,,,,,,,,,,,,,,,,,,,,,
,,,,,,,,,0,12,12,13,1,images/tense-sf.jpeg,nervous,tense,sf,5e5835c55bb31204ae424619,2020-12-21_15h12.38.458,weird_font1,2020.2.10,Win32,60,5fe0f7ff878eaaaf22a7b442,5fe101a0bfd89b2fa6b3addb,,,,,,,,,,,,,,,,,,,,,,,,,,,,,,,,,,
,,,,,,,,,0,13,13,19,1,images/blow-sf.jpeg,wind,blow,sf,5e5835c55bb31204ae424619,2020-12-21_15h12.38.458,weird_font1,2020.2.10,Win32,60,5fe0f7ff878eaaaf22a7b442,5fe101a0bfd89b2fa6b3addb,,,,,,,,,,,,,,,,,,,,,,,,,,,,,,,,,,
,,,,,,,,,0,14,14,4,1,images/boss-sf.jpeg,employee,boss,sf,5e5835c55bb31204ae424619,2020-12-21_15h12.38.458,weird_font1,2020.2.10,Win32,60,5fe0f7ff878eaaaf22a7b442,5fe101a0bfd89b2fa6b3addb,,,,,,,,,,,,,,,,,,,,,,,,,,,,,,,,,,
,,,,,,,,,0,15,15,6,1,images/protect-a.jpeg,guard,protect,a,5e5835c55bb31204ae424619,2020-12-21_15h12.38.458,weird_font1,2020.2.10,Win32,60,5fe0f7ff878eaaaf22a7b442,5fe101a0bfd89b2fa6b3addb,,,,,,,,,,,,,,,,,,,,,,,,,,,,,,,,,,
,,,,,,,,,0,16,16,10,1,images/sharp-a.jpeg,knife,sharp,a,5e5835c55bb31204ae424619,2020-12-21_15h12.38.458,weird_font1,2020.2.10,Win32,60,5fe0f7ff878eaaaf22a7b442,5fe101a0bfd89b2fa6b3addb,,,,,,,,,,,,,,,,,,,,,,,,,,,,,,,,,,
,,,,,,,,,0,17,17,7,1,images/sheep-a.jpeg,herd,sheep,a,5e5835c55bb31204ae424619,2020-12-21_15h12.38.458,weird_font1,2020.2.10,Win32,60,5fe0f7ff878eaaaf22a7b442,5fe101a0bfd89b2fa6b3addb,,,,,,,,,,,,,,,,,,,,,,,,,,,,,,,,,,
,,,,,,,,,0,18,18,3,1,images/swim-sf.jpeg,dive,swim,sf,5e5835c55bb31204ae424619,2020-12-21_15h12.38.458,weird_font1,2020.2.10,Win32,60,5fe0f7ff878eaaaf22a7b442,5fe101a0bfd89b2fa6b3addb,,,,,,,,,,,,,,,,,,,,,,,,,,,,,,,,,,
,,,,,,,,,0,19,19,15,1,images/apart-a.jpeg,separate,apart,a,5e5835c55bb31204ae424619,2020-12-21_15h12.38.458,weird_font1,2020.2.10,Win32,60,5fe0f7ff878eaaaf22a7b442,5fe101a0bfd89b2fa6b3addb,,,,,,,,,,,,,,,,,,,,,,,,,,,,,,,,,,
,,,,,,,,,,,,,,,tire,wheel,a,5e5835c55bb31204ae424619,2020-12-21_15h12.38.458,weird_font1,2020.2.10,Win32,60,5fe0f7ff878eaaaf22a7b442,5fe101a0bfd89b2fa6b3addb,99.66292135,12.31955,99.7752809,9.56675,0.01011236,-0.430337079,1,0,0,9.221165,polygon,wheel,0.083146067,0.004494382,1,0,0,1.98159,polygon_2,0,tire,0,0,0,16,1,wheel-a.jpeg,,,,,,,
,,,,,,,,,,,,,,,kill,destroy,sf,5e5835c55bb31204ae424619,2020-12-21_15h12.38.458,weird_font1,2020.2.10,Win32,60,5fe0f7ff878eaaaf22a7b442,5fe101a0bfd89b2fa6b3addb,,,,,,,,,,,,die,0.13258427,0,1,0,0,3.53079,polygon_2,0,kill,0,1,1,9,1,destory-sf.jpeg,,,,,,,
,,,,,,,,,,,,,,,employee,boss,sf,5e5835c55bb31204ae424619,2020-12-21_15h12.38.458,weird_font1,2020.2.10,Win32,60,5fe0f7ff878eaaaf22a7b442,5fe101a0bfd89b2fa6b3addb,,,,,,,,,,,,boss,0.035955056,0.017977528,1,0,0,2.866015,polygon_2,0,employee,0,2,2,4,1,boss-sf.jpeg,,,,,,,
,,,,,,,,,,,,,,,chip,potato,a,5e5835c55bb31204ae424619,2020-12-21_15h12.38.458,weird_font1,2020.2.10,Win32,60,5fe0f7ff878eaaaf22a7b442,5fe101a0bfd89b2fa6b3addb,,,,,,,,,,,,potato,0.012359551,-0.029213483,1,0,0,4.70141,polygon_2,0,chip,0,3,3,2,1,potato-a.jpeg,,,,,,,
,,,,,,,,,,,,,,,guard,protect,a,5e5835c55bb31204ae424619,2020-12-21_15h12.38.458,weird_font1,2020.2.10,Win32,60,5fe0f7ff878eaaaf22a7b442,5fe101a0bfd89b2fa6b3addb,,,,,,,,,,,,security ,0.084269663,-0.019101124,1,0,0,4.53452,polygon_2,0,guard,0,4,4,6,1,protect-a.jpeg,,,,,,,
,,,,,,,,,,,,,,,separate,apart,a,5e5835c55bb31204ae424619,2020-12-21_15h12.38.458,weird_font1,2020.2.10,Win32,60,5fe0f7ff878eaaaf22a7b442,5fe101a0bfd89b2fa6b3addb,,,,,,,,,,,,,-0.002247191,-0.270786517,1,0,0,6.768385,polygon_2,0,separate,0,5,5,15,1,apart-a.jpeg,,,,,,,
,,,,,,,,,,,,,,,path,trail,sf,5e5835c55bb31204ae424619,2020-12-21_15h12.38.458,weird_font1,2020.2.10,Win32,60,5fe0f7ff878eaaaf22a7b442,5fe101a0bfd89b2fa6b3addb,,,,,,,,,,,,narrow,0.246067416,0.002247191,1,0,0,6.809735,polygon_2,0,path,0,6,6,14,1,trail-sf.jpeg,,,,,,,
,,,,,,,,,,,,,,,nervous,tense,sf,5e5835c55bb31204ae424619,2020-12-21_15h12.38.458,weird_font1,2020.2.10,Win32,60,5fe0f7ff878eaaaf22a7b442,5fe101a0bfd89b2fa6b3addb,,,,,,,,,,,,scared,-0.019101124,-0.046067416,1,0,0,2.76645,polygon_2,0,nervous,0,7,7,13,1,tense-sf.jpeg,,,,,,,
,,,,,,,,,,,,,,,knife,sharp,a,5e5835c55bb31204ae424619,2020-12-21_15h12.38.458,weird_font1,2020.2.10,Win32,60,5fe0f7ff878eaaaf22a7b442,5fe101a0bfd89b2fa6b3addb,,,,,,,,,,,,block,0.070786517,-0.014606742,1,0,0,3.249105,polygon_2,0,knife,0,8,8,10,1,sharp-a.jpeg,,,,,,,
,,,,,,,,,,,,,,,virtue,patience,sf,5e5835c55bb31204ae424619,2020-12-21_15h12.38.458,weird_font1,2020.2.10,Win32,60,5fe0f7ff878eaaaf22a7b442,5fe101a0bfd89b2fa6b3addb,,,,,,,,,,,,,0.002247191,-0.307865169,1,0,0,38.894315,polygon_2,0,virtue,0,9,9,17,1,patience-sf.jpeg,,,,,,,
,,,,,,,,,,,,,,,fence,yard,a,5e5835c55bb31204ae424619,2020-12-21_15h12.38.458,weird_font1,2020.2.10,Win32,60,5fe0f7ff878eaaaf22a7b442,5fe101a0bfd89b2fa6b3addb,,,,,,,,,,,,,0.002247191,-0.306741573,1,0,0,0.530915,polygon_2,0,fence,0,10,10,5,1,yard-a.jpeg,,,,,,,
,,,,,,,,,,,,,,,wind,blow,sf,5e5835c55bb31204ae424619,2020-12-21_15h12.38.458,weird_font1,2020.2.10,Win32,60,5fe0f7ff878eaaaf22a7b442,5fe101a0bfd89b2fa6b3addb,,,,,,,,,,,,blow,0.112359551,-0.008988764,1,0,0,3.768495,polygon_2,0,wind,0,11,11,19,1,blow-sf.jpeg,,,,,,,
,,,,,,,,,,,,,,,lens,contact,sf,5e5835c55bb31204ae424619,2020-12-21_15h12.38.458,weird_font1,2020.2.10,Win32,60,5fe0f7ff878eaaaf22a7b442,5fe101a0bfd89b2fa6b3addb,,,,,,,,,,,,contact,0.040449438,0.011235955,1,0,0,2.506475,polygon_2,0,lens,0,12,12,11,1,contact-sf.jpeg,,,,,,,
,,,,,,,,,,,,,,,dive,swim,sf,5e5835c55bb31204ae424619,2020-12-21_15h12.38.458,weird_font1,2020.2.10,Win32,60,5fe0f7ff878eaaaf22a7b442,5fe101a0bfd89b2fa6b3addb,,,,,,,,,,,,swan,0.105617978,-0.020224719,1,0,0,3.3405,polygon_2,0,dive,0,13,13,3,1,swim-sf.jpeg,,,,,,,
,,,,,,,,,,,,,,,wax,candle,a,5e5835c55bb31204ae424619,2020-12-21_15h12.38.458,weird_font1,2020.2.10,Win32,60,5fe0f7ff878eaaaf22a7b442,5fe101a0bfd89b2fa6b3addb,,,,,,,,,,,,candle,0.087640449,-0.030337079,1,0,0,2.613905,polygon_2,0,wax,0,14,14,18,1,candle-a.jpeg,,,,,,,
,,,,,,,,,,,,,,,joy,happiness,a,5e5835c55bb31204ae424619,2020-12-21_15h12.38.458,weird_font1,2020.2.10,Win32,60,5fe0f7ff878eaaaf22a7b442,5fe101a0bfd89b2fa6b3addb,,,,,,,,,,,,happiness,0.087640449,-0.008988764,1,0,0,3.349955,polygon_2,0,joy,0,15,15,8,1,happiness-a.jpeg,,,,,,,
,,,,,,,,,,,,,,,herd,sheep,a,5e5835c55bb31204ae424619,2020-12-21_15h12.38.458,weird_font1,2020.2.10,Win32,60,5fe0f7ff878eaaaf22a7b442,5fe101a0bfd89b2fa6b3addb,,,,,,,,,,,,sheep,0.079775281,0.01011236,1,0,0,4.51795,polygon_2,0,herd,0,16,16,7,1,sheep-a.jpeg,,,,,,,
,,,,,,,,,,,,,,,accident,crash,sf,5e5835c55bb31204ae424619,2020-12-21_15h12.38.458,weird_font1,2020.2.10,Win32,60,5fe0f7ff878eaaaf22a7b442,5fe101a0bfd89b2fa6b3addb,,,,,,,,,,,,car,0.065168539,-0.024719101,1,0,0,1.91593,polygon_2,0,accident,0,17,17,0,1,crash-sf.jpeg,,,,,,,
,,,,,,,,,,,,,,,blind,deaf,a,5e5835c55bb31204ae424619,2020-12-21_15h12.38.458,weird_font1,2020.2.10,Win32,60,5fe0f7ff878eaaaf22a7b442,5fe101a0bfd89b2fa6b3addb,,,,,,,,,,,,eye,0.069662921,0.001123596,1,0,0,6.119265,polygon_2,0,blind,0,18,18,1,1,deaf-a.jpeg,,,,,,,
,,,,,,,,,,,,,,,magazine,article,sf,5e5835c55bb31204ae424619,2020-12-21_15h12.38.458,weird_font1,2020.2.10,Win32,60,5fe0f7ff878eaaaf22a7b442,5fe101a0bfd89b2fa6b3addb,,,,,,,,,,,,cover,0.059550562,0.02247191,1,0,0,2.96521,polygon_2,0,magazine,0,19,19,12,1,article-sf.jpeg,,,,,,,
,,,,,,,,,,,,,,,,,,5e5835c55bb31204ae424619,2020-12-21_15h12.38.458,weird_font1,2020.2.10,Win32,60,5fe0f7ff878eaaaf22a7b442,5fe101a0bfd89b2fa6b3addb,,,,,,,,,,,,,,,,,,,,,,,,,,,,0.013483146,-0.275280899,1,0,0,1.446585,end_polygon
