key_resp.keys,key_resp.rt,mouse.x,mouse.y,mouse.leftButton,mouse.midButton,mouse.rightButton,mouse.time,mouse.clicked_name,cb.thisRepN,cb.thisTrialN,cb.thisN,cb.thisIndex,cb.ran,images,cue,target,font,participant,date,expName,psychopyVersion,OS,frameRate,study_id,session,atypic_slider.response,atypic_slider.rt,normal_slider.response,normal_slider.rt,mouse_3.x,mouse_3.y,mouse_3.leftButton,mouse_3.midButton,mouse_3.rightButton,mouse_3.time,mouse_3.clicked_name,textbox.text,mouse_5.x,mouse_5.y,mouse_5.leftButton,mouse_5.midButton,mouse_5.rightButton,mouse_5.time,mouse_5.clicked_name,correctAns,textbox_response,test.thisRepN,test.thisTrialN,test.thisN,test.thisIndex,test.ran,pairs,mouse_2.x,mouse_2.y,mouse_2.leftButton,mouse_2.midButton,mouse_2.rightButton,mouse_2.time,mouse_2.clicked_name
y,8.879875,0.388473853,-0.249199573,1,0,0,10.55974,cont1,0,0,0,15,1,images/apart-a.jpeg,separate,apart,a,5ed83674e7cb0a18273e9028,2020-12-21_13h10.09.464,weird_font1,2020.2.10,Win32,60,5fe0f7ff878eaaaf22a7b442,5fe10eef3cc53cb313d799d1,,,,,,,,,,,,,,,,,,,,,,,,,,,,,,,,,,
,,,,,,,,,0,1,1,10,1,images/sharp-a.jpeg,knife,sharp,a,5ed83674e7cb0a18273e9028,2020-12-21_13h10.09.464,weird_font1,2020.2.10,Win32,60,5fe0f7ff878eaaaf22a7b442,5fe10eef3cc53cb313d799d1,,,,,,,,,,,,,,,,,,,,,,,,,,,,,,,,,,
,,,,,,,,,0,2,2,19,1,images/blow-sf.jpeg,wind,blow,sf,5ed83674e7cb0a18273e9028,2020-12-21_13h10.09.464,weird_font1,2020.2.10,Win32,60,5fe0f7ff878eaaaf22a7b442,5fe10eef3cc53cb313d799d1,,,,,,,,,,,,,,,,,,,,,,,,,,,,,,,,,,
,,,,,,,,,0,3,3,2,1,images/potato-a.jpeg,chip,potato,a,5ed83674e7cb0a18273e9028,2020-12-21_13h10.09.464,weird_font1,2020.2.10,Win32,60,5fe0f7ff878eaaaf22a7b442,5fe10eef3cc53cb313d799d1,,,,,,,,,,,,,,,,,,,,,,,,,,,,,,,,,,
,,,,,,,,,0,4,4,16,1,images/wheel-a.jpeg,tire,wheel,a,5ed83674e7cb0a18273e9028,2020-12-21_13h10.09.464,weird_font1,2020.2.10,Win32,60,5fe0f7ff878eaaaf22a7b442,5fe10eef3cc53cb313d799d1,,,,,,,,,,,,,,,,,,,,,,,,,,,,,,,,,,
,,,,,,,,,0,5,5,3,1,images/swim-sf.jpeg,dive,swim,sf,5ed83674e7cb0a18273e9028,2020-12-21_13h10.09.464,weird_font1,2020.2.10,Win32,60,5fe0f7ff878eaaaf22a7b442,5fe10eef3cc53cb313d799d1,,,,,,,,,,,,,,,,,,,,,,,,,,,,,,,,,,
,,,,,,,,,0,6,6,14,1,images/trail-sf.jpeg,path,trail,sf,5ed83674e7cb0a18273e9028,2020-12-21_13h10.09.464,weird_font1,2020.2.10,Win32,60,5fe0f7ff878eaaaf22a7b442,5fe10eef3cc53cb313d799d1,,,,,,,,,,,,,,,,,,,,,,,,,,,,,,,,,,
,,,,,,,,,0,7,7,1,1,images/deaf-a.jpeg,blind,deaf,a,5ed83674e7cb0a18273e9028,2020-12-21_13h10.09.464,weird_font1,2020.2.10,Win32,60,5fe0f7ff878eaaaf22a7b442,5fe10eef3cc53cb313d799d1,,,,,,,,,,,,,,,,,,,,,,,,,,,,,,,,,,
,,,,,,,,,0,8,8,6,1,images/protect-a.jpeg,guard,protect,a,5ed83674e7cb0a18273e9028,2020-12-21_13h10.09.464,weird_font1,2020.2.10,Win32,60,5fe0f7ff878eaaaf22a7b442,5fe10eef3cc53cb313d799d1,,,,,,,,,,,,,,,,,,,,,,,,,,,,,,,,,,
,,,,,,,,,0,9,9,12,1,images/article-sf.jpeg,magazine,article,sf,5ed83674e7cb0a18273e9028,2020-12-21_13h10.09.464,weird_font1,2020.2.10,Win32,60,5fe0f7ff878eaaaf22a7b442,5fe10eef3cc53cb313d799d1,,,,,,,,,,,,,,,,,,,,,,,,,,,,,,,,,,
,,,,,,,,,0,10,10,18,1,images/candle-a.jpeg,wax,candle,a,5ed83674e7cb0a18273e9028,2020-12-21_13h10.09.464,weird_font1,2020.2.10,Win32,60,5fe0f7ff878eaaaf22a7b442,5fe10eef3cc53cb313d799d1,,,,,,,,,,,,,,,,,,,,,,,,,,,,,,,,,,
,,,,,,,,,0,11,11,5,1,images/yard-a.jpeg,fence,yard,a,5ed83674e7cb0a18273e9028,2020-12-21_13h10.09.464,weird_font1,2020.2.10,Win32,60,5fe0f7ff878eaaaf22a7b442,5fe10eef3cc53cb313d799d1,,,,,,,,,,,,,,,,,,,,,,,,,,,,,,,,,,
,,,,,,,,,0,12,12,4,1,images/boss-sf.jpeg,employee,boss,sf,5ed83674e7cb0a18273e9028,2020-12-21_13h10.09.464,weird_font1,2020.2.10,Win32,60,5fe0f7ff878eaaaf22a7b442,5fe10eef3cc53cb313d799d1,,,,,,,,,,,,,,,,,,,,,,,,,,,,,,,,,,
,,,,,,,,,0,13,13,9,1,images/destory-sf.jpeg,kill,destroy,sf,5ed83674e7cb0a18273e9028,2020-12-21_13h10.09.464,weird_font1,2020.2.10,Win32,60,5fe0f7ff878eaaaf22a7b442,5fe10eef3cc53cb313d799d1,,,,,,,,,,,,,,,,,,,,,,,,,,,,,,,,,,
,,,,,,,,,0,14,14,0,1,images/crash-sf.jpeg,accident,crash,sf,5ed83674e7cb0a18273e9028,2020-12-21_13h10.09.464,weird_font1,2020.2.10,Win32,60,5fe0f7ff878eaaaf22a7b442,5fe10eef3cc53cb313d799d1,,,,,,,,,,,,,,,,,,,,,,,,,,,,,,,,,,
,,,,,,,,,0,15,15,13,1,images/tense-sf.jpeg,nervous,tense,sf,5ed83674e7cb0a18273e9028,2020-12-21_13h10.09.464,weird_font1,2020.2.10,Win32,60,5fe0f7ff878eaaaf22a7b442,5fe10eef3cc53cb313d799d1,,,,,,,,,,,,,,,,,,,,,,,,,,,,,,,,,,
,,,,,,,,,0,16,16,11,1,images/contact-sf.jpeg,lens,contact,sf,5ed83674e7cb0a18273e9028,2020-12-21_13h10.09.464,weird_font1,2020.2.10,Win32,60,5fe0f7ff878eaaaf22a7b442,5fe10eef3cc53cb313d799d1,,,,,,,,,,,,,,,,,,,,,,,,,,,,,,,,,,
,,,,,,,,,0,17,17,7,1,images/sheep-a.jpeg,herd,sheep,a,5ed83674e7cb0a18273e9028,2020-12-21_13h10.09.464,weird_font1,2020.2.10,Win32,60,5fe0f7ff878eaaaf22a7b442,5fe10eef3cc53cb313d799d1,,,,,,,,,,,,,,,,,,,,,,,,,,,,,,,,,,
,,,,,,,,,0,18,18,8,1,images/happiness-a.jpeg,joy,happiness,a,5ed83674e7cb0a18273e9028,2020-12-21_13h10.09.464,weird_font1,2020.2.10,Win32,60,5fe0f7ff878eaaaf22a7b442,5fe10eef3cc53cb313d799d1,,,,,,,,,,,,,,,,,,,,,,,,,,,,,,,,,,
,,,,,,,,,0,19,19,17,1,images/patience-sf.jpeg,virtue,patience,sf,5ed83674e7cb0a18273e9028,2020-12-21_13h10.09.464,weird_font1,2020.2.10,Win32,60,5fe0f7ff878eaaaf22a7b442,5fe10eef3cc53cb313d799d1,,,,,,,,,,,,,,,,,,,,,,,,,,,,,,,,,,
,,,,,,,,,,,,,,,guard,protect,a,5ed83674e7cb0a18273e9028,2020-12-21_13h10.09.464,weird_font1,2020.2.10,Win32,60,5fe0f7ff878eaaaf22a7b442,5fe10eef3cc53cb313d799d1,69.85058698,12.873005,40.9284952,6.309345,0.003201708,-0.385805763,1,0,0,9.56635,polygon,protect,0.052294557,-0.025080043,1,0,0,1.12428,polygon_2,0,guard,0,0,0,6,1,protect-a.jpeg,,,,,,,
,,,,,,,,,,,,,,,wind,blow,sf,5ed83674e7cb0a18273e9028,2020-12-21_13h10.09.464,weird_font1,2020.2.10,Win32,60,5fe0f7ff878eaaaf22a7b442,5fe10eef3cc53cb313d799d1,,,,,,,,,,,,air,-0.064034152,0.016542156,1,0,0,1.14043,polygon_2,0,wind,0,1,1,19,1,blow-sf.jpeg,,,,,,,
,,,,,,,,,,,,,,,lens,contact,sf,5ed83674e7cb0a18273e9028,2020-12-21_13h10.09.464,weird_font1,2020.2.10,Win32,60,5fe0f7ff878eaaaf22a7b442,5fe10eef3cc53cb313d799d1,,,,,,,,,,,,contact,-0.113127001,-0.017609392,1,0,0,1.015255,polygon_2,0,lens,0,2,2,11,1,contact-sf.jpeg,,,,,,,
,,,,,,,,,,,,,,,tire,wheel,a,5ed83674e7cb0a18273e9028,2020-12-21_13h10.09.464,weird_font1,2020.2.10,Win32,60,5fe0f7ff878eaaaf22a7b442,5fe10eef3cc53cb313d799d1,,,,,,,,,,,,wheel,-0.033084312,-0.024012807,1,0,0,0.9514,polygon_2,0,tire,0,3,3,16,1,wheel-a.jpeg,,,,,,,
,,,,,,,,,,,,,,,separate,apart,a,5ed83674e7cb0a18273e9028,2020-12-21_13h10.09.464,weird_font1,2020.2.10,Win32,60,5fe0f7ff878eaaaf22a7b442,5fe10eef3cc53cb313d799d1,,,,,,,,,,,,different,-0.096051227,-0.014407684,1,0,0,0.841855,polygon_2,0,separate,0,4,4,15,1,apart-a.jpeg,,,,,,,
,,,,,,,,,,,,,,,magazine,article,sf,5ed83674e7cb0a18273e9028,2020-12-21_13h10.09.464,weird_font1,2020.2.10,Win32,60,5fe0f7ff878eaaaf22a7b442,5fe10eef3cc53cb313d799d1,,,,,,,,,,,,journal,-0.053361793,-0.001600854,1,0,0,0.83939,polygon_2,0,magazine,0,5,5,12,1,article-sf.jpeg,,,,,,,
,,,,,,,,,,,,,,,fence,yard,a,5ed83674e7cb0a18273e9028,2020-12-21_13h10.09.464,weird_font1,2020.2.10,Win32,60,5fe0f7ff878eaaaf22a7b442,5fe10eef3cc53cb313d799d1,,,,,,,,,,,,yard,-0.089647812,-0.014407684,1,0,0,0.627785,polygon_2,0,fence,0,6,6,5,1,yard-a.jpeg,,,,,,,
,,,,,,,,,,,,,,,nervous,tense,sf,5ed83674e7cb0a18273e9028,2020-12-21_13h10.09.464,weird_font1,2020.2.10,Win32,60,5fe0f7ff878eaaaf22a7b442,5fe10eef3cc53cb313d799d1,,,,,,,,,,,,anxious,-0.091782284,0.005869797,1,0,0,0.961275,polygon_2,0,nervous,0,7,7,13,1,tense-sf.jpeg,,,,,,,
,,,,,,,,,,,,,,,employee,boss,sf,5ed83674e7cb0a18273e9028,2020-12-21_13h10.09.464,weird_font1,2020.2.10,Win32,60,5fe0f7ff878eaaaf22a7b442,5fe10eef3cc53cb313d799d1,,,,,,,,,,,,store,-0.091782284,-0.000533618,1,0,0,0.98917,polygon_2,0,employee,0,8,8,4,1,boss-sf.jpeg,,,,,,,
,,,,,,,,,,,,,,,chip,potato,a,5ed83674e7cb0a18273e9028,2020-12-21_13h10.09.464,weird_font1,2020.2.10,Win32,60,5fe0f7ff878eaaaf22a7b442,5fe10eef3cc53cb313d799d1,,,,,,,,,,,,potato,-0.022411953,-0.016542156,1,0,0,0.792355,polygon_2,0,chip,0,9,9,2,1,potato-a.jpeg,,,,,,,
,,,,,,,,,,,,,,,dive,swim,sf,5ed83674e7cb0a18273e9028,2020-12-21_13h10.09.464,weird_font1,2020.2.10,Win32,60,5fe0f7ff878eaaaf22a7b442,5fe10eef3cc53cb313d799d1,,,,,,,,,,,,water,-0.053361793,0.014407684,1,0,0,0.664615,polygon_2,0,dive,0,10,10,3,1,swim-sf.jpeg,,,,,,,
,,,,,,,,,,,,,,,virtue,patience,sf,5ed83674e7cb0a18273e9028,2020-12-21_13h10.09.464,weird_font1,2020.2.10,Win32,60,5fe0f7ff878eaaaf22a7b442,5fe10eef3cc53cb313d799d1,,,,,,,,,,,,virtuous,-0.091782284,-0.010138741,1,0,0,0.80078,polygon_2,0,virtue,0,11,11,17,1,patience-sf.jpeg,,,,,,,
,,,,,,,,,,,,,,,herd,sheep,a,5ed83674e7cb0a18273e9028,2020-12-21_13h10.09.464,weird_font1,2020.2.10,Win32,60,5fe0f7ff878eaaaf22a7b442,5fe10eef3cc53cb313d799d1,,,,,,,,,,,,sheep,-0.114194237,0.009071505,1,0,0,0.80309,polygon_2,0,herd,0,12,12,7,1,sheep-a.jpeg,,,,,,,
,,,,,,,,,,,,,,,kill,destroy,sf,5ed83674e7cb0a18273e9028,2020-12-21_13h10.09.464,weird_font1,2020.2.10,Win32,60,5fe0f7ff878eaaaf22a7b442,5fe10eef3cc53cb313d799d1,,,,,,,,,,,,destroy,-0.098185699,0.00266809,1,0,0,0.706985,polygon_2,0,kill,0,13,13,9,1,destory-sf.jpeg,,,,,,,
,,,,,,,,,,,,,,,knife,sharp,a,5ed83674e7cb0a18273e9028,2020-12-21_13h10.09.464,weird_font1,2020.2.10,Win32,60,5fe0f7ff878eaaaf22a7b442,5fe10eef3cc53cb313d799d1,,,,,,,,,,,,sharp,-0.108858058,-0.011205977,1,0,0,0.76417,polygon_2,0,knife,0,14,14,10,1,sharp-a.jpeg,,,,,,,
,,,,,,,,,,,,,,,accident,crash,sf,5ed83674e7cb0a18273e9028,2020-12-21_13h10.09.464,weird_font1,2020.2.10,Win32,60,5fe0f7ff878eaaaf22a7b442,5fe10eef3cc53cb313d799d1,,,,,,,,,,,,dangerous,-0.089647812,0.011205977,1,0,0,0.652265,polygon_2,0,accident,0,15,15,0,1,crash-sf.jpeg,,,,,,,
,,,,,,,,,,,,,,,blind,deaf,a,5ed83674e7cb0a18273e9028,2020-12-21_13h10.09.464,weird_font1,2020.2.10,Win32,60,5fe0f7ff878eaaaf22a7b442,5fe10eef3cc53cb313d799d1,,,,,,,,,,,,deaf,-0.04909285,-0.000533618,1,0,0,0.77911,polygon_2,0,blind,0,16,16,1,1,deaf-a.jpeg,,,,,,,
,,,,,,,,,,,,,,,path,trail,sf,5ed83674e7cb0a18273e9028,2020-12-21_13h10.09.464,weird_font1,2020.2.10,Win32,60,5fe0f7ff878eaaaf22a7b442,5fe10eef3cc53cb313d799d1,,,,,,,,,,,,travel,-0.037353255,-0.001600854,1,0,0,0.64509,polygon_2,0,path,0,17,17,14,1,trail-sf.jpeg,,,,,,,
,,,,,,,,,,,,,,,wax,candle,a,5ed83674e7cb0a18273e9028,2020-12-21_13h10.09.464,weird_font1,2020.2.10,Win32,60,5fe0f7ff878eaaaf22a7b442,5fe10eef3cc53cb313d799d1,,,,,,,,,,,,wane,-0.107790822,0.01547492,1,0,0,0.6551,polygon_2,0,wax,0,18,18,18,1,candle-a.jpeg,,,,,,,
,,,,,,,,,,,,,,,joy,happiness,a,5ed83674e7cb0a18273e9028,2020-12-21_13h10.09.464,weird_font1,2020.2.10,Win32,60,5fe0f7ff878eaaaf22a7b442,5fe10eef3cc53cb313d799d1,,,,,,,,,,,,happy,-0.110992529,-0.005869797,1,0,0,0.681655,polygon_2,0,joy,0,19,19,8,1,happiness-a.jpeg,,,,,,,
,,,,,,,,,,,,,,,,,,5ed83674e7cb0a18273e9028,2020-12-21_13h10.09.464,weird_font1,2020.2.10,Win32,60,5fe0f7ff878eaaaf22a7b442,5fe10eef3cc53cb313d799d1,,,,,,,,,,,,,,,,,,,,,,,,,,,,0.002134472,-0.326040555,1,0,0,8.038365,end_polygon
