key_resp.keys,key_resp.rt,mouse.x,mouse.y,mouse.leftButton,mouse.midButton,mouse.rightButton,mouse.time,mouse.clicked_name,cb.thisRepN,cb.thisTrialN,cb.thisN,cb.thisIndex,cb.ran,images,cue,target,font,participant,session,date,expName,psychopyVersion,OS,frameRate,study_id,atypic_slider.response,atypic_slider.rt,normal_slider.response,normal_slider.rt,mouse_3.x,mouse_3.y,mouse_3.leftButton,mouse_3.midButton,mouse_3.rightButton,mouse_3.time,mouse_3.clicked_name,textbox.text,mouse_5.x,mouse_5.y,mouse_5.leftButton,mouse_5.midButton,mouse_5.rightButton,mouse_5.time,mouse_5.clicked_name,correctAns,textbox_response,test.thisRepN,test.thisTrialN,test.thisN,test.thisIndex,test.ran,mouse_2.x,mouse_2.y,mouse_2.leftButton,mouse_2.midButton,mouse_2.rightButton,mouse_2.time,mouse_2.clicked_name
y,13.516,-0.00304414,-0.311263318,1,0,0,10.901,cont1,0,0,0,8,1,images/happiness-sf.jpeg,JOY,HAPPINESS,sf,59d1e366faf42e00012b6c1c,5fe22fa6bbdf7fd78d1e1e1f,2020-12-22_12h41.39.248,weird_font2,2020.2.10,Win32,60,5fe21653eed16dd302de4693,,,,,,,,,,,,,,,,,,,,,,,,,,,,,,,,,
,,,,,,,,,0,1,1,0,1,images/crash-a.jpeg,ACCIDENT,CRASH,a,59d1e366faf42e00012b6c1c,5fe22fa6bbdf7fd78d1e1e1f,2020-12-22_12h41.39.248,weird_font2,2020.2.10,Win32,60,5fe21653eed16dd302de4693,,,,,,,,,,,,,,,,,,,,,,,,,,,,,,,,,
,,,,,,,,,0,2,2,15,1,images/apart-sf.jpeg,SEPARATE,APART,sf,59d1e366faf42e00012b6c1c,5fe22fa6bbdf7fd78d1e1e1f,2020-12-22_12h41.39.248,weird_font2,2020.2.10,Win32,60,5fe21653eed16dd302de4693,,,,,,,,,,,,,,,,,,,,,,,,,,,,,,,,,
,,,,,,,,,0,3,3,17,1,images/patience-a.jpeg,VIRTUE,PATIENCE,a,59d1e366faf42e00012b6c1c,5fe22fa6bbdf7fd78d1e1e1f,2020-12-22_12h41.39.248,weird_font2,2020.2.10,Win32,60,5fe21653eed16dd302de4693,,,,,,,,,,,,,,,,,,,,,,,,,,,,,,,,,
,,,,,,,,,0,4,4,7,1,images/sheep-sf.jpeg,HERD,SHEEP,sf,59d1e366faf42e00012b6c1c,5fe22fa6bbdf7fd78d1e1e1f,2020-12-22_12h41.39.248,weird_font2,2020.2.10,Win32,60,5fe21653eed16dd302de4693,,,,,,,,,,,,,,,,,,,,,,,,,,,,,,,,,
,,,,,,,,,0,5,5,16,1,images/wheel-sf.jpeg,TIRE,WHEEL,sf,59d1e366faf42e00012b6c1c,5fe22fa6bbdf7fd78d1e1e1f,2020-12-22_12h41.39.248,weird_font2,2020.2.10,Win32,60,5fe21653eed16dd302de4693,,,,,,,,,,,,,,,,,,,,,,,,,,,,,,,,,
,,,,,,,,,0,6,6,13,1,images/tense-a.jpeg,NERVOUS,TENSE,a,59d1e366faf42e00012b6c1c,5fe22fa6bbdf7fd78d1e1e1f,2020-12-22_12h41.39.248,weird_font2,2020.2.10,Win32,60,5fe21653eed16dd302de4693,,,,,,,,,,,,,,,,,,,,,,,,,,,,,,,,,
,,,,,,,,,0,7,7,11,1,images/contact-a.jpeg,LENS,CONTACT,a,59d1e366faf42e00012b6c1c,5fe22fa6bbdf7fd78d1e1e1f,2020-12-22_12h41.39.248,weird_font2,2020.2.10,Win32,60,5fe21653eed16dd302de4693,,,,,,,,,,,,,,,,,,,,,,,,,,,,,,,,,
,,,,,,,,,0,8,8,18,1,images/candle-sf.jpeg,WAX,CANDLE,sf,59d1e366faf42e00012b6c1c,5fe22fa6bbdf7fd78d1e1e1f,2020-12-22_12h41.39.248,weird_font2,2020.2.10,Win32,60,5fe21653eed16dd302de4693,,,,,,,,,,,,,,,,,,,,,,,,,,,,,,,,,
,,,,,,,,,0,9,9,14,1,images/trail-a.jpeg,PATH,TRAIL,a,59d1e366faf42e00012b6c1c,5fe22fa6bbdf7fd78d1e1e1f,2020-12-22_12h41.39.248,weird_font2,2020.2.10,Win32,60,5fe21653eed16dd302de4693,,,,,,,,,,,,,,,,,,,,,,,,,,,,,,,,,
,,,,,,,,,0,10,10,2,1,images/potato-sf.jpeg,CHIP,POTATO,sf,59d1e366faf42e00012b6c1c,5fe22fa6bbdf7fd78d1e1e1f,2020-12-22_12h41.39.248,weird_font2,2020.2.10,Win32,60,5fe21653eed16dd302de4693,,,,,,,,,,,,,,,,,,,,,,,,,,,,,,,,,
,,,,,,,,,0,11,11,4,1,images/boss-a.jpeg,EMPLOYEE,BOSS,a,59d1e366faf42e00012b6c1c,5fe22fa6bbdf7fd78d1e1e1f,2020-12-22_12h41.39.248,weird_font2,2020.2.10,Win32,60,5fe21653eed16dd302de4693,,,,,,,,,,,,,,,,,,,,,,,,,,,,,,,,,
,,,,,,,,,0,12,12,10,1,images/sharp-sf.jpeg,KNIFE,SHARP,sf,59d1e366faf42e00012b6c1c,5fe22fa6bbdf7fd78d1e1e1f,2020-12-22_12h41.39.248,weird_font2,2020.2.10,Win32,60,5fe21653eed16dd302de4693,,,,,,,,,,,,,,,,,,,,,,,,,,,,,,,,,
,,,,,,,,,0,13,13,3,1,images/swim-a.jpeg,DIVE,SWIM,a,59d1e366faf42e00012b6c1c,5fe22fa6bbdf7fd78d1e1e1f,2020-12-22_12h41.39.248,weird_font2,2020.2.10,Win32,60,5fe21653eed16dd302de4693,,,,,,,,,,,,,,,,,,,,,,,,,,,,,,,,,
,,,,,,,,,0,14,14,12,1,images/article-a.jpeg,MAGAZINE,ARTICLE,a,59d1e366faf42e00012b6c1c,5fe22fa6bbdf7fd78d1e1e1f,2020-12-22_12h41.39.248,weird_font2,2020.2.10,Win32,60,5fe21653eed16dd302de4693,,,,,,,,,,,,,,,,,,,,,,,,,,,,,,,,,
,,,,,,,,,0,15,15,1,1,images/deaf-sf.jpeg,BLIND,DEAF,sf,59d1e366faf42e00012b6c1c,5fe22fa6bbdf7fd78d1e1e1f,2020-12-22_12h41.39.248,weird_font2,2020.2.10,Win32,60,5fe21653eed16dd302de4693,,,,,,,,,,,,,,,,,,,,,,,,,,,,,,,,,
,,,,,,,,,0,16,16,6,1,images/protect-sf.jpeg,GUARD,PROTECT,sf,59d1e366faf42e00012b6c1c,5fe22fa6bbdf7fd78d1e1e1f,2020-12-22_12h41.39.248,weird_font2,2020.2.10,Win32,60,5fe21653eed16dd302de4693,,,,,,,,,,,,,,,,,,,,,,,,,,,,,,,,,
,,,,,,,,,0,17,17,9,1,images/destory-a.jpeg,KILL,DESTROY,a,59d1e366faf42e00012b6c1c,5fe22fa6bbdf7fd78d1e1e1f,2020-12-22_12h41.39.248,weird_font2,2020.2.10,Win32,60,5fe21653eed16dd302de4693,,,,,,,,,,,,,,,,,,,,,,,,,,,,,,,,,
,,,,,,,,,0,18,18,19,1,images/blow-a.jpeg,WIND,BLOW,a,59d1e366faf42e00012b6c1c,5fe22fa6bbdf7fd78d1e1e1f,2020-12-22_12h41.39.248,weird_font2,2020.2.10,Win32,60,5fe21653eed16dd302de4693,,,,,,,,,,,,,,,,,,,,,,,,,,,,,,,,,
,,,,,,,,,0,19,19,5,1,images/yard-sf.jpeg,FENCE,YARD,sf,59d1e366faf42e00012b6c1c,5fe22fa6bbdf7fd78d1e1e1f,2020-12-22_12h41.39.248,weird_font2,2020.2.10,Win32,60,5fe21653eed16dd302de4693,,,,,,,,,,,,,,,,,,,,,,,,,,,,,,,,,
,,,,,,,,,,,,,,sheep-sf.jpeg,herd,sheep,sf,59d1e366faf42e00012b6c1c,5fe22fa6bbdf7fd78d1e1e1f,2020-12-22_12h41.39.248,weird_font2,2020.2.10,Win32,60,5fe21653eed16dd302de4693,99.31506849,7.356,99.01065449,0.879,0.491628615,-0.264079148,1,0,0,22.1,polygon,sheep,-0.395738204,0.023592085,1,0,0,6.049,polygon_2,0,herd,0,0,0,7,1,,,,,,,
,,,,,,,,,,,,,,blow-a.jpeg,wind,blow,a,59d1e366faf42e00012b6c1c,5fe22fa6bbdf7fd78d1e1e1f,2020-12-22_12h41.39.248,weird_font2,2020.2.10,Win32,60,5fe21653eed16dd302de4693,,,,,,,,,,,,blow,-0.312024353,0.012937595,1,0,0,1.342,polygon_2,0,wind,0,1,1,19,1,,,,,,,
,,,,,,,,,,,,,,happiness-sf.jpeg,joy,happiness,sf,59d1e366faf42e00012b6c1c,5fe22fa6bbdf7fd78d1e1e1f,2020-12-22_12h41.39.248,weird_font2,2020.2.10,Win32,60,5fe21653eed16dd302de4693,,,,,,,,,,,,,-0.00152207,-0.320395738,1,0,0,2.234,polygon_2,0,joy,0,2,2,8,1,,,,,,,
,,,,,,,,,,,,,,potato-sf.jpeg,chip,potato,sf,59d1e366faf42e00012b6c1c,5fe22fa6bbdf7fd78d1e1e1f,2020-12-22_12h41.39.248,weird_font2,2020.2.10,Win32,60,5fe21653eed16dd302de4693,,,,,,,,,,,,potatoe,-0.185692542,-0.014459665,1,0,0,2.005,polygon_2,0,chip,0,3,3,2,1,,,,,,,
,,,,,,,,,,,,,,tense-a.jpeg,nervous,tense,a,59d1e366faf42e00012b6c1c,5fe22fa6bbdf7fd78d1e1e1f,2020-12-22_12h41.39.248,weird_font2,2020.2.10,Win32,60,5fe21653eed16dd302de4693,,,,,,,,,,,,,0.01674277,-0.289954338,1,0,0,2.188,polygon_2,0,nervous,0,4,4,13,1,,,,,,,
,,,,,,,,,,,,,,wheel-sf.jpeg,tire,wheel,sf,59d1e366faf42e00012b6c1c,5fe22fa6bbdf7fd78d1e1e1f,2020-12-22_12h41.39.248,weird_font2,2020.2.10,Win32,60,5fe21653eed16dd302de4693,,,,,,,,,,,,,-0.197869102,-0.017503805,1,0,0,2.178,polygon_2,0,tire,0,5,5,16,1,,,,,,,
,,,,,,,,,,,,,,contact-a.jpeg,lens,contact,a,59d1e366faf42e00012b6c1c,5fe22fa6bbdf7fd78d1e1e1f,2020-12-22_12h41.39.248,weird_font2,2020.2.10,Win32,60,5fe21653eed16dd302de4693,,,,,,,,,,,,contact,-0.207001522,0.011415525,1,0,0,1,polygon_2,0,lens,0,6,6,11,1,,,,,,,
,,,,,,,,,,,,,,yard-sf.jpeg,fence,yard,sf,59d1e366faf42e00012b6c1c,5fe22fa6bbdf7fd78d1e1e1f,2020-12-22_12h41.39.248,weird_font2,2020.2.10,Win32,60,5fe21653eed16dd302de4693,,,,,,,,,,,,,0.00152207,-0.318873668,1,0,0,1.935,polygon_2,0,fence,0,7,7,5,1,,,,,,,
,,,,,,,,,,,,,,protect-sf.jpeg,guard,protect,sf,59d1e366faf42e00012b6c1c,5fe22fa6bbdf7fd78d1e1e1f,2020-12-22_12h41.39.248,weird_font2,2020.2.10,Win32,60,5fe21653eed16dd302de4693,,,,,,,,,,,,,-0.03196347,-0.262557078,1,0,0,1.123,polygon_2,0,guard,0,8,8,6,1,,,,,,,
,,,,,,,,,,,,,,apart-sf.jpeg,separate,apart,sf,59d1e366faf42e00012b6c1c,5fe22fa6bbdf7fd78d1e1e1f,2020-12-22_12h41.39.248,weird_font2,2020.2.10,Win32,60,5fe21653eed16dd302de4693,,,,,,,,,,,,,0.01217656,-0.311263318,1,0,0,1.451,polygon_2,0,separate,0,9,9,15,1,,,,,,,
,,,,,,,,,,,,,,boss-a.jpeg,employee,boss,a,59d1e366faf42e00012b6c1c,5fe22fa6bbdf7fd78d1e1e1f,2020-12-22_12h41.39.248,weird_font2,2020.2.10,Win32,60,5fe21653eed16dd302de4693,,,,,,,,,,,,,0.01217656,-0.309741248,1,0,0,1.484,polygon_2,0,employee,0,10,10,4,1,,,,,,,
,,,,,,,,,,,,,,destory-a.jpeg,kill,destroy,a,59d1e366faf42e00012b6c1c,5fe22fa6bbdf7fd78d1e1e1f,2020-12-22_12h41.39.248,weird_font2,2020.2.10,Win32,60,5fe21653eed16dd302de4693,,,,,,,,,,,,,0.01217656,-0.309741248,1,0,0,1.163,polygon_2,0,kill,0,11,11,9,1,,,,,,,
,,,,,,,,,,,,,,article-a.jpeg,magazine,article,a,59d1e366faf42e00012b6c1c,5fe22fa6bbdf7fd78d1e1e1f,2020-12-22_12h41.39.248,weird_font2,2020.2.10,Win32,60,5fe21653eed16dd302de4693,,,,,,,,,,,,,0.01217656,-0.309741248,1,0,0,1.846,polygon_2,0,magazine,0,12,12,12,1,,,,,,,
,,,,,,,,,,,,,,deaf-sf.jpeg,blind,deaf,sf,59d1e366faf42e00012b6c1c,5fe22fa6bbdf7fd78d1e1e1f,2020-12-22_12h41.39.248,weird_font2,2020.2.10,Win32,60,5fe21653eed16dd302de4693,,,,,,,,,,,,,0.01217656,-0.309741248,1,0,0,0.823,polygon_2,0,blind,0,13,13,1,1,,,,,,,
,,,,,,,,,,,,,,candle-sf.jpeg,wax,candle,sf,59d1e366faf42e00012b6c1c,5fe22fa6bbdf7fd78d1e1e1f,2020-12-22_12h41.39.248,weird_font2,2020.2.10,Win32,60,5fe21653eed16dd302de4693,,,,,,,,,,,,candle,-0.147640791,-0.026636225,1,0,0,1.914,polygon_2,0,wax,0,14,14,18,1,,,,,,,
,,,,,,,,,,,,,,sharp-sf.jpeg,knife,sharp,sf,59d1e366faf42e00012b6c1c,5fe22fa6bbdf7fd78d1e1e1f,2020-12-22_12h41.39.248,weird_font2,2020.2.10,Win32,60,5fe21653eed16dd302de4693,,,,,,,,,,,,,-0.00304414,-0.308219178,1,0,0,1.865,polygon_2,0,knife,0,15,15,10,1,,,,,,,
,,,,,,,,,,,,,,crash-a.jpeg,accident,crash,a,59d1e366faf42e00012b6c1c,5fe22fa6bbdf7fd78d1e1e1f,2020-12-22_12h41.39.248,weird_font2,2020.2.10,Win32,60,5fe21653eed16dd302de4693,,,,,,,,,,,,,0.00608828,-0.306697108,1,0,0,1.342,polygon_2,0,accident,0,16,16,0,1,,,,,,,
,,,,,,,,,,,,,,swim-a.jpeg,dive,swim,a,59d1e366faf42e00012b6c1c,5fe22fa6bbdf7fd78d1e1e1f,2020-12-22_12h41.39.248,weird_font2,2020.2.10,Win32,60,5fe21653eed16dd302de4693,,,,,,,,,,,,,0.00608828,-0.306697108,1,0,0,1.037,polygon_2,0,dive,0,17,17,3,1,,,,,,,
,,,,,,,,,,,,,,trail-a.jpeg,path,trail,a,59d1e366faf42e00012b6c1c,5fe22fa6bbdf7fd78d1e1e1f,2020-12-22_12h41.39.248,weird_font2,2020.2.10,Win32,60,5fe21653eed16dd302de4693,,,,,,,,,,,,,0.00608828,-0.315829528,1,0,0,1.485,polygon_2,0,path,0,18,18,14,1,,,,,,,
,,,,,,,,,,,,,,patience-a.jpeg,virtue,patience,a,59d1e366faf42e00012b6c1c,5fe22fa6bbdf7fd78d1e1e1f,2020-12-22_12h41.39.248,weird_font2,2020.2.10,Win32,60,5fe21653eed16dd302de4693,,,,,,,,,,,,,0.00608828,-0.315829528,1,0,0,1.033,polygon_2,0,virtue,0,19,19,17,1,,,,,,,
,,,,,,,,,,,,,,,,,,59d1e366faf42e00012b6c1c,5fe22fa6bbdf7fd78d1e1e1f,2020-12-22_12h41.39.248,weird_font2,2020.2.10,Win32,60,5fe21653eed16dd302de4693,,,,,,,,,,,,,,,,,,,,,,,,,,,0.00608828,-0.315829528,1,0,0,1.161,end_polygon
