key_resp.keys,key_resp.rt,mouse.x,mouse.y,mouse.leftButton,mouse.midButton,mouse.rightButton,mouse.time,mouse.clicked_name,cb.thisRepN,cb.thisTrialN,cb.thisN,cb.thisIndex,cb.ran,images,cue,target,font,participant,session,date,expName,psychopyVersion,OS,frameRate,study_id,atypic_slider.response,atypic_slider.rt,normal_slider.response,normal_slider.rt,mouse_3.x,mouse_3.y,mouse_3.leftButton,mouse_3.midButton,mouse_3.rightButton,mouse_3.time,mouse_3.clicked_name,textbox.text,mouse_5.x,mouse_5.y,mouse_5.leftButton,mouse_5.midButton,mouse_5.rightButton,mouse_5.time,mouse_5.clicked_name,correctAns,textbox_response,test.thisRepN,test.thisTrialN,test.thisN,test.thisIndex,test.ran,mouse_2.x,mouse_2.y,mouse_2.leftButton,mouse_2.midButton,mouse_2.rightButton,mouse_2.time,mouse_2.clicked_name
y,44.30693,0.002119285,-0.313774847,1,0,0,13.07732,cont1,0,0,0,17,1,images/patience-a.jpeg,VIRTUE,PATIENCE,a,5ee4b29de1640f1bc85da97b,5fe22f48eb5270d821acdfdb,2020-12-22_12h39.57.608,weird_font2,2020.2.10,Win32,60,5fe21653eed16dd302de4693,,,,,,,,,,,,,,,,,,,,,,,,,,,,,,,,,
,,,,,,,,,0,1,1,1,1,images/deaf-sf.jpeg,BLIND,DEAF,sf,5ee4b29de1640f1bc85da97b,5fe22f48eb5270d821acdfdb,2020-12-22_12h39.57.608,weird_font2,2020.2.10,Win32,60,5fe21653eed16dd302de4693,,,,,,,,,,,,,,,,,,,,,,,,,,,,,,,,,
,,,,,,,,,0,2,2,8,1,images/happiness-sf.jpeg,JOY,HAPPINESS,sf,5ee4b29de1640f1bc85da97b,5fe22f48eb5270d821acdfdb,2020-12-22_12h39.57.608,weird_font2,2020.2.10,Win32,60,5fe21653eed16dd302de4693,,,,,,,,,,,,,,,,,,,,,,,,,,,,,,,,,
,,,,,,,,,0,3,3,6,1,images/protect-sf.jpeg,GUARD,PROTECT,sf,5ee4b29de1640f1bc85da97b,5fe22f48eb5270d821acdfdb,2020-12-22_12h39.57.608,weird_font2,2020.2.10,Win32,60,5fe21653eed16dd302de4693,,,,,,,,,,,,,,,,,,,,,,,,,,,,,,,,,
,,,,,,,,,0,4,4,9,1,images/destory-a.jpeg,KILL,DESTROY,a,5ee4b29de1640f1bc85da97b,5fe22f48eb5270d821acdfdb,2020-12-22_12h39.57.608,weird_font2,2020.2.10,Win32,60,5fe21653eed16dd302de4693,,,,,,,,,,,,,,,,,,,,,,,,,,,,,,,,,
,,,,,,,,,0,5,5,14,1,images/trail-a.jpeg,PATH,TRAIL,a,5ee4b29de1640f1bc85da97b,5fe22f48eb5270d821acdfdb,2020-12-22_12h39.57.608,weird_font2,2020.2.10,Win32,60,5fe21653eed16dd302de4693,,,,,,,,,,,,,,,,,,,,,,,,,,,,,,,,,
,,,,,,,,,0,6,6,4,1,images/boss-a.jpeg,EMPLOYEE,BOSS,a,5ee4b29de1640f1bc85da97b,5fe22f48eb5270d821acdfdb,2020-12-22_12h39.57.608,weird_font2,2020.2.10,Win32,60,5fe21653eed16dd302de4693,,,,,,,,,,,,,,,,,,,,,,,,,,,,,,,,,
,,,,,,,,,0,7,7,2,1,images/potato-sf.jpeg,CHIP,POTATO,sf,5ee4b29de1640f1bc85da97b,5fe22f48eb5270d821acdfdb,2020-12-22_12h39.57.608,weird_font2,2020.2.10,Win32,60,5fe21653eed16dd302de4693,,,,,,,,,,,,,,,,,,,,,,,,,,,,,,,,,
,,,,,,,,,0,8,8,10,1,images/sharp-sf.jpeg,KNIFE,SHARP,sf,5ee4b29de1640f1bc85da97b,5fe22f48eb5270d821acdfdb,2020-12-22_12h39.57.608,weird_font2,2020.2.10,Win32,60,5fe21653eed16dd302de4693,,,,,,,,,,,,,,,,,,,,,,,,,,,,,,,,,
,,,,,,,,,0,9,9,3,1,images/swim-a.jpeg,DIVE,SWIM,a,5ee4b29de1640f1bc85da97b,5fe22f48eb5270d821acdfdb,2020-12-22_12h39.57.608,weird_font2,2020.2.10,Win32,60,5fe21653eed16dd302de4693,,,,,,,,,,,,,,,,,,,,,,,,,,,,,,,,,
,,,,,,,,,0,10,10,18,1,images/candle-sf.jpeg,WAX,CANDLE,sf,5ee4b29de1640f1bc85da97b,5fe22f48eb5270d821acdfdb,2020-12-22_12h39.57.608,weird_font2,2020.2.10,Win32,60,5fe21653eed16dd302de4693,,,,,,,,,,,,,,,,,,,,,,,,,,,,,,,,,
,,,,,,,,,0,11,11,13,1,images/tense-a.jpeg,NERVOUS,TENSE,a,5ee4b29de1640f1bc85da97b,5fe22f48eb5270d821acdfdb,2020-12-22_12h39.57.608,weird_font2,2020.2.10,Win32,60,5fe21653eed16dd302de4693,,,,,,,,,,,,,,,,,,,,,,,,,,,,,,,,,
,,,,,,,,,0,12,12,11,1,images/contact-a.jpeg,LENS,CONTACT,a,5ee4b29de1640f1bc85da97b,5fe22f48eb5270d821acdfdb,2020-12-22_12h39.57.608,weird_font2,2020.2.10,Win32,60,5fe21653eed16dd302de4693,,,,,,,,,,,,,,,,,,,,,,,,,,,,,,,,,
,,,,,,,,,0,13,13,12,1,images/article-a.jpeg,MAGAZINE,ARTICLE,a,5ee4b29de1640f1bc85da97b,5fe22f48eb5270d821acdfdb,2020-12-22_12h39.57.608,weird_font2,2020.2.10,Win32,60,5fe21653eed16dd302de4693,,,,,,,,,,,,,,,,,,,,,,,,,,,,,,,,,
,,,,,,,,,0,14,14,7,1,images/sheep-sf.jpeg,HERD,SHEEP,sf,5ee4b29de1640f1bc85da97b,5fe22f48eb5270d821acdfdb,2020-12-22_12h39.57.608,weird_font2,2020.2.10,Win32,60,5fe21653eed16dd302de4693,,,,,,,,,,,,,,,,,,,,,,,,,,,,,,,,,
,,,,,,,,,0,15,15,0,1,images/crash-a.jpeg,ACCIDENT,CRASH,a,5ee4b29de1640f1bc85da97b,5fe22f48eb5270d821acdfdb,2020-12-22_12h39.57.608,weird_font2,2020.2.10,Win32,60,5fe21653eed16dd302de4693,,,,,,,,,,,,,,,,,,,,,,,,,,,,,,,,,
,,,,,,,,,0,16,16,5,1,images/yard-sf.jpeg,FENCE,YARD,sf,5ee4b29de1640f1bc85da97b,5fe22f48eb5270d821acdfdb,2020-12-22_12h39.57.608,weird_font2,2020.2.10,Win32,60,5fe21653eed16dd302de4693,,,,,,,,,,,,,,,,,,,,,,,,,,,,,,,,,
,,,,,,,,,0,17,17,16,1,images/wheel-sf.jpeg,TIRE,WHEEL,sf,5ee4b29de1640f1bc85da97b,5fe22f48eb5270d821acdfdb,2020-12-22_12h39.57.608,weird_font2,2020.2.10,Win32,60,5fe21653eed16dd302de4693,,,,,,,,,,,,,,,,,,,,,,,,,,,,,,,,,
,,,,,,,,,0,18,18,19,1,images/blow-a.jpeg,WIND,BLOW,a,5ee4b29de1640f1bc85da97b,5fe22f48eb5270d821acdfdb,2020-12-22_12h39.57.608,weird_font2,2020.2.10,Win32,60,5fe21653eed16dd302de4693,,,,,,,,,,,,,,,,,,,,,,,,,,,,,,,,,
,,,,,,,,,0,19,19,15,1,images/apart-sf.jpeg,SEPARATE,APART,sf,5ee4b29de1640f1bc85da97b,5fe22f48eb5270d821acdfdb,2020-12-22_12h39.57.608,weird_font2,2020.2.10,Win32,60,5fe21653eed16dd302de4693,,,,,,,,,,,,,,,,,,,,,,,,,,,,,,,,,
,,,,,,,,,,,,,,contact-a.jpeg,lens,contact,a,5ee4b29de1640f1bc85da97b,5fe22f48eb5270d821acdfdb,2020-12-22_12h39.57.608,weird_font2,2020.2.10,Win32,60,5fe21653eed16dd302de4693,69.70860765,12.04612,69.07284768,1.08437,-0.010596011,-0.400662265,1,0,0,7.72281,polygon,,-0.328476811,-0.000132458,1,0,0,5.746175,polygon_2,0,lens,0,0,0,11,1,,,,,,,
,,,,,,,,,,,,,,wheel-sf.jpeg,tire,wheel,sf,5ee4b29de1640f1bc85da97b,5fe22f48eb5270d821acdfdb,2020-12-22_12h39.57.608,weird_font2,2020.2.10,Win32,60,5fe21653eed16dd302de4693,,,,,,,,,,,,,-0.010596011,-0.296821269,1,0,0,1.321385,polygon_2,0,tire,0,1,1,16,1,,,,,,,
,,,,,,,,,,,,,,crash-a.jpeg,accident,crash,a,5ee4b29de1640f1bc85da97b,5fe22f48eb5270d821acdfdb,2020-12-22_12h39.57.608,weird_font2,2020.2.10,Win32,60,5fe21653eed16dd302de4693,,,,,,,,,,,,,-0.010596011,-0.296821269,1,0,0,0.2536,polygon_2,0,accident,0,2,2,0,1,,,,,,,
,,,,,,,,,,,,,,apart-sf.jpeg,separate,apart,sf,5ee4b29de1640f1bc85da97b,5fe22f48eb5270d821acdfdb,2020-12-22_12h39.57.608,weird_font2,2020.2.10,Win32,60,5fe21653eed16dd302de4693,,,,,,,,,,,,,0.002119285,-0.307417295,1,0,0,6.92924,polygon_2,0,separate,0,3,3,15,1,,,,,,,
,,,,,,,,,,,,,,deaf-sf.jpeg,blind,deaf,sf,5ee4b29de1640f1bc85da97b,5fe22f48eb5270d821acdfdb,2020-12-22_12h39.57.608,weird_font2,2020.2.10,Win32,60,5fe21653eed16dd302de4693,,,,,,,,,,,,,-0.004238396,-0.311655641,1,0,0,7.112535,polygon_2,0,blind,0,4,4,1,1,,,,,,,
,,,,,,,,,,,,,,protect-sf.jpeg,guard,protect,sf,5ee4b29de1640f1bc85da97b,5fe22f48eb5270d821acdfdb,2020-12-22_12h39.57.608,weird_font2,2020.2.10,Win32,60,5fe21653eed16dd302de4693,,,,,,,,,,,,,-0.00211919,-0.298940409,1,0,0,4.645365,polygon_2,0,guard,0,5,5,6,1,,,,,,,
,,,,,,,,,,,,,,blow-a.jpeg,wind,blow,a,5ee4b29de1640f1bc85da97b,5fe22f48eb5270d821acdfdb,2020-12-22_12h39.57.608,weird_font2,2020.2.10,Win32,60,5fe21653eed16dd302de4693,,,,,,,,,,,,blow,-0.428079461,-0.006490074,1,0,0,1.530995,polygon_2,0,wind,0,6,6,19,1,,,,,,,
,,,,,,,,,,,,,,yard-sf.jpeg,fence,yard,sf,5ee4b29de1640f1bc85da97b,5fe22f48eb5270d821acdfdb,2020-12-22_12h39.57.608,weird_font2,2020.2.10,Win32,60,5fe21653eed16dd302de4693,,,,,,,,,,,,post,-0.472582773,0.004105953,1,0,0,3.60477,polygon_2,0,fence,0,7,7,5,1,,,,,,,
,,,,,,,,,,,,,,patience-a.jpeg,virtue,patience,a,5ee4b29de1640f1bc85da97b,5fe22f48eb5270d821acdfdb,2020-12-22_12h39.57.608,weird_font2,2020.2.10,Win32,60,5fe21653eed16dd302de4693,,,,,,,,,,,,,1.51577E-08,-0.320132463,1,0,0,6.70956,polygon_2,0,virtue,0,8,8,17,1,,,,,,,
,,,,,,,,,,,,,,candle-sf.jpeg,wax,candle,sf,5ee4b29de1640f1bc85da97b,5fe22f48eb5270d821acdfdb,2020-12-22_12h39.57.608,weird_font2,2020.2.10,Win32,60,5fe21653eed16dd302de4693,,,,,,,,,,,,candle,-0.447152309,-0.000132458,1,0,0,2.397765,polygon_2,0,wax,0,9,9,18,1,,,,,,,
,,,,,,,,,,,,,,tense-a.jpeg,nervous,tense,a,5ee4b29de1640f1bc85da97b,5fe22f48eb5270d821acdfdb,2020-12-22_12h39.57.608,weird_font2,2020.2.10,Win32,60,5fe21653eed16dd302de4693,,,,,,,,,,,,,0.010596042,-0.313774847,1,0,0,8.577305,polygon_2,0,nervous,0,10,10,13,1,,,,,,,
,,,,,,,,,,,,,,potato-sf.jpeg,chip,potato,sf,5ee4b29de1640f1bc85da97b,5fe22f48eb5270d821acdfdb,2020-12-22_12h39.57.608,weird_font2,2020.2.10,Win32,60,5fe21653eed16dd302de4693,,,,,,,,,,,,chocolate,-0.440794693,-0.002251663,1,0,0,9.827115,polygon_2,0,chip,0,11,11,2,1,,,,,,,
,,,,,,,,,,,,,,happiness-sf.jpeg,joy,happiness,sf,5ee4b29de1640f1bc85da97b,5fe22f48eb5270d821acdfdb,2020-12-22_12h39.57.608,weird_font2,2020.2.10,Win32,60,5fe21653eed16dd302de4693,,,,,,,,,,,,,0.002119285,-0.315894052,1,0,0,9.14105,polygon_2,0,joy,0,12,12,8,1,,,,,,,
,,,,,,,,,,,,,,boss-a.jpeg,employee,boss,a,5ee4b29de1640f1bc85da97b,5fe22f48eb5270d821acdfdb,2020-12-22_12h39.57.608,weird_font2,2020.2.10,Win32,60,5fe21653eed16dd302de4693,,,,,,,,,,,,boss,-0.445033104,0.012582774,1,0,0,2.384665,polygon_2,0,employee,0,13,13,4,1,,,,,,,
,,,,,,,,,,,,,,sharp-sf.jpeg,knife,sharp,sf,5ee4b29de1640f1bc85da97b,5fe22f48eb5270d821acdfdb,2020-12-22_12h39.57.608,weird_font2,2020.2.10,Win32,60,5fe21653eed16dd302de4693,,,,,,,,,,,,blade,-0.466225157,-0.002251663,1,0,0,6.83711,polygon_2,0,knife,0,14,14,10,1,,,,,,,
,,,,,,,,,,,,,,article-a.jpeg,magazine,article,a,5ee4b29de1640f1bc85da97b,5fe22f48eb5270d821acdfdb,2020-12-22_12h39.57.608,weird_font2,2020.2.10,Win32,60,5fe21653eed16dd302de4693,,,,,,,,,,,,article,-0.466225157,-0.000132458,1,0,0,3.577275,polygon_2,0,magazine,0,15,15,12,1,,,,,,,
,,,,,,,,,,,,,,swim-a.jpeg,dive,swim,a,5ee4b29de1640f1bc85da97b,5fe22f48eb5270d821acdfdb,2020-12-22_12h39.57.608,weird_font2,2020.2.10,Win32,60,5fe21653eed16dd302de4693,,,,,,,,,,,,,0.004238426,-0.313774847,1,0,0,9.351145,polygon_2,0,dive,0,16,16,3,1,,,,,,,
,,,,,,,,,,,,,,sheep-sf.jpeg,herd,sheep,sf,5ee4b29de1640f1bc85da97b,5fe22f48eb5270d821acdfdb,2020-12-22_12h39.57.608,weird_font2,2020.2.10,Win32,60,5fe21653eed16dd302de4693,,,,,,,,,,,,sheep,-0.438675488,-0.004370901,1,0,0,2.48053,polygon_2,0,herd,0,17,17,7,1,,,,,,,
,,,,,,,,,,,,,,trail-a.jpeg,path,trail,a,5ee4b29de1640f1bc85da97b,5fe22f48eb5270d821acdfdb,2020-12-22_12h39.57.608,weird_font2,2020.2.10,Win32,60,5fe21653eed16dd302de4693,,,,,,,,,,,,,0.002119285,-0.309536436,1,0,0,5.499375,polygon_2,0,path,0,18,18,14,1,,,,,,,
,,,,,,,,,,,,,,destory-a.jpeg,kill,destroy,a,5ee4b29de1640f1bc85da97b,5fe22f48eb5270d821acdfdb,2020-12-22_12h39.57.608,weird_font2,2020.2.10,Win32,60,5fe21653eed16dd302de4693,,,,,,,,,,,,,-0.008476741,-0.311655641,1,0,0,5.712255,polygon_2,0,kill,0,19,19,9,1,,,,,,,
,,,,,,,,,,,,,,,,,,5ee4b29de1640f1bc85da97b,5fe22f48eb5270d821acdfdb,2020-12-22_12h39.57.608,weird_font2,2020.2.10,Win32,60,5fe21653eed16dd302de4693,,,,,,,,,,,,,,,,,,,,,,,,,,,-0.012715217,-0.315894052,1,0,0,8.317785,end_polygon
