key_resp.keys,key_resp.rt,mouse.x,mouse.y,mouse.leftButton,mouse.midButton,mouse.rightButton,mouse.time,mouse.clicked_name,cb.thisRepN,cb.thisTrialN,cb.thisN,cb.thisIndex,cb.ran,images,cue,target,font,participant,session,date,expName,psychopyVersion,OS,frameRate,study_id,atypic_slider.response,atypic_slider.rt,normal_slider.response,normal_slider.rt,mouse_3.x,mouse_3.y,mouse_3.leftButton,mouse_3.midButton,mouse_3.rightButton,mouse_3.time,mouse_3.clicked_name,textbox.text,mouse_5.x,mouse_5.y,mouse_5.leftButton,mouse_5.midButton,mouse_5.rightButton,mouse_5.time,mouse_5.clicked_name,correctAns,textbox_response,test.thisRepN,test.thisTrialN,test.thisN,test.thisIndex,test.ran,mouse_2.x,mouse_2.y,mouse_2.leftButton,mouse_2.midButton,mouse_2.rightButton,mouse_2.time,mouse_2.clicked_name
y,8.92543,0.004649182,-0.316764521,1,0,0,8.119445,cont1,0,0,0,7,1,images/sheep-sf.jpeg,HERD,SHEEP,sf,5fe17e28d8918b3fae67ec4d,5fe22dab6d65c5d8f126f6f8,2020-12-22_12h33.09.853,weird_font2,2020.2.10,Linux x86_64,60,5fe21653eed16dd302de4693,,,,,,,,,,,,,,,,,,,,,,,,,,,,,,,,,
,,,,,,,,,0,1,1,9,1,images/destory-a.jpeg,KILL,DESTROY,a,5fe17e28d8918b3fae67ec4d,5fe22dab6d65c5d8f126f6f8,2020-12-22_12h33.09.853,weird_font2,2020.2.10,Linux x86_64,60,5fe21653eed16dd302de4693,,,,,,,,,,,,,,,,,,,,,,,,,,,,,,,,,
,,,,,,,,,0,2,2,11,1,images/contact-a.jpeg,LENS,CONTACT,a,5fe17e28d8918b3fae67ec4d,5fe22dab6d65c5d8f126f6f8,2020-12-22_12h33.09.853,weird_font2,2020.2.10,Linux x86_64,60,5fe21653eed16dd302de4693,,,,,,,,,,,,,,,,,,,,,,,,,,,,,,,,,
,,,,,,,,,0,3,3,18,1,images/candle-sf.jpeg,WAX,CANDLE,sf,5fe17e28d8918b3fae67ec4d,5fe22dab6d65c5d8f126f6f8,2020-12-22_12h33.09.853,weird_font2,2020.2.10,Linux x86_64,60,5fe21653eed16dd302de4693,,,,,,,,,,,,,,,,,,,,,,,,,,,,,,,,,
,,,,,,,,,0,4,4,6,1,images/protect-sf.jpeg,GUARD,PROTECT,sf,5fe17e28d8918b3fae67ec4d,5fe22dab6d65c5d8f126f6f8,2020-12-22_12h33.09.853,weird_font2,2020.2.10,Linux x86_64,60,5fe21653eed16dd302de4693,,,,,,,,,,,,,,,,,,,,,,,,,,,,,,,,,
,,,,,,,,,0,5,5,13,1,images/tense-a.jpeg,NERVOUS,TENSE,a,5fe17e28d8918b3fae67ec4d,5fe22dab6d65c5d8f126f6f8,2020-12-22_12h33.09.853,weird_font2,2020.2.10,Linux x86_64,60,5fe21653eed16dd302de4693,,,,,,,,,,,,,,,,,,,,,,,,,,,,,,,,,
,,,,,,,,,0,6,6,5,1,images/yard-sf.jpeg,FENCE,YARD,sf,5fe17e28d8918b3fae67ec4d,5fe22dab6d65c5d8f126f6f8,2020-12-22_12h33.09.853,weird_font2,2020.2.10,Linux x86_64,60,5fe21653eed16dd302de4693,,,,,,,,,,,,,,,,,,,,,,,,,,,,,,,,,
,,,,,,,,,0,7,7,1,1,images/deaf-sf.jpeg,BLIND,DEAF,sf,5fe17e28d8918b3fae67ec4d,5fe22dab6d65c5d8f126f6f8,2020-12-22_12h33.09.853,weird_font2,2020.2.10,Linux x86_64,60,5fe21653eed16dd302de4693,,,,,,,,,,,,,,,,,,,,,,,,,,,,,,,,,
,,,,,,,,,0,8,8,16,1,images/wheel-sf.jpeg,TIRE,WHEEL,sf,5fe17e28d8918b3fae67ec4d,5fe22dab6d65c5d8f126f6f8,2020-12-22_12h33.09.853,weird_font2,2020.2.10,Linux x86_64,60,5fe21653eed16dd302de4693,,,,,,,,,,,,,,,,,,,,,,,,,,,,,,,,,
,,,,,,,,,0,9,9,12,1,images/article-a.jpeg,MAGAZINE,ARTICLE,a,5fe17e28d8918b3fae67ec4d,5fe22dab6d65c5d8f126f6f8,2020-12-22_12h33.09.853,weird_font2,2020.2.10,Linux x86_64,60,5fe21653eed16dd302de4693,,,,,,,,,,,,,,,,,,,,,,,,,,,,,,,,,
,,,,,,,,,0,10,10,17,1,images/patience-a.jpeg,VIRTUE,PATIENCE,a,5fe17e28d8918b3fae67ec4d,5fe22dab6d65c5d8f126f6f8,2020-12-22_12h33.09.853,weird_font2,2020.2.10,Linux x86_64,60,5fe21653eed16dd302de4693,,,,,,,,,,,,,,,,,,,,,,,,,,,,,,,,,
,,,,,,,,,0,11,11,0,1,images/crash-a.jpeg,ACCIDENT,CRASH,a,5fe17e28d8918b3fae67ec4d,5fe22dab6d65c5d8f126f6f8,2020-12-22_12h33.09.853,weird_font2,2020.2.10,Linux x86_64,60,5fe21653eed16dd302de4693,,,,,,,,,,,,,,,,,,,,,,,,,,,,,,,,,
,,,,,,,,,0,12,12,4,1,images/boss-a.jpeg,EMPLOYEE,BOSS,a,5fe17e28d8918b3fae67ec4d,5fe22dab6d65c5d8f126f6f8,2020-12-22_12h33.09.853,weird_font2,2020.2.10,Linux x86_64,60,5fe21653eed16dd302de4693,,,,,,,,,,,,,,,,,,,,,,,,,,,,,,,,,
,,,,,,,,,0,13,13,15,1,images/apart-sf.jpeg,SEPARATE,APART,sf,5fe17e28d8918b3fae67ec4d,5fe22dab6d65c5d8f126f6f8,2020-12-22_12h33.09.853,weird_font2,2020.2.10,Linux x86_64,60,5fe21653eed16dd302de4693,,,,,,,,,,,,,,,,,,,,,,,,,,,,,,,,,
,,,,,,,,,0,14,14,2,1,images/potato-sf.jpeg,CHIP,POTATO,sf,5fe17e28d8918b3fae67ec4d,5fe22dab6d65c5d8f126f6f8,2020-12-22_12h33.09.853,weird_font2,2020.2.10,Linux x86_64,60,5fe21653eed16dd302de4693,,,,,,,,,,,,,,,,,,,,,,,,,,,,,,,,,
,,,,,,,,,0,15,15,10,1,images/sharp-sf.jpeg,KNIFE,SHARP,sf,5fe17e28d8918b3fae67ec4d,5fe22dab6d65c5d8f126f6f8,2020-12-22_12h33.09.853,weird_font2,2020.2.10,Linux x86_64,60,5fe21653eed16dd302de4693,,,,,,,,,,,,,,,,,,,,,,,,,,,,,,,,,
,,,,,,,,,0,16,16,8,1,images/happiness-sf.jpeg,JOY,HAPPINESS,sf,5fe17e28d8918b3fae67ec4d,5fe22dab6d65c5d8f126f6f8,2020-12-22_12h33.09.853,weird_font2,2020.2.10,Linux x86_64,60,5fe21653eed16dd302de4693,,,,,,,,,,,,,,,,,,,,,,,,,,,,,,,,,
,,,,,,,,,0,17,17,3,1,images/swim-a.jpeg,DIVE,SWIM,a,5fe17e28d8918b3fae67ec4d,5fe22dab6d65c5d8f126f6f8,2020-12-22_12h33.09.853,weird_font2,2020.2.10,Linux x86_64,60,5fe21653eed16dd302de4693,,,,,,,,,,,,,,,,,,,,,,,,,,,,,,,,,
,,,,,,,,,0,18,18,19,1,images/blow-a.jpeg,WIND,BLOW,a,5fe17e28d8918b3fae67ec4d,5fe22dab6d65c5d8f126f6f8,2020-12-22_12h33.09.853,weird_font2,2020.2.10,Linux x86_64,60,5fe21653eed16dd302de4693,,,,,,,,,,,,,,,,,,,,,,,,,,,,,,,,,
,,,,,,,,,0,19,19,14,1,images/trail-a.jpeg,PATH,TRAIL,a,5fe17e28d8918b3fae67ec4d,5fe22dab6d65c5d8f126f6f8,2020-12-22_12h33.09.853,weird_font2,2020.2.10,Linux x86_64,60,5fe21653eed16dd302de4693,,,,,,,,,,,,,,,,,,,,,,,,,,,,,,,,,
,,,,,,,,,,,,,,apart-sf.jpeg,separate,apart,sf,5fe17e28d8918b3fae67ec4d,5fe22dab6d65c5d8f126f6f8,2020-12-22_12h33.09.853,weird_font2,2020.2.10,Linux x86_64,60,5fe21653eed16dd302de4693,50.2076587,11.507565,89.69134104,6.712825,0.001285449,-0.418480028,1,0,0,6.90654,polygon,apart,-0.001440894,0.012701111,1,0,0,1.578675,polygon_2,0,separate,0,0,0,15,1,,,,,,,
,,,,,,,,,,,,,,deaf-sf.jpeg,blind,deaf,sf,5fe17e28d8918b3fae67ec4d,5fe22dab6d65c5d8f126f6f8,2020-12-22_12h33.09.853,weird_font2,2020.2.10,Linux x86_64,60,5fe21653eed16dd302de4693,,,,,,,,,,,,deaf,-0.063877911,0.016958462,1,0,0,1.78105,polygon_2,0,blind,0,1,1,1,1,,,,,,,
,,,,,,,,,,,,,,patience-a.jpeg,virtue,patience,a,5fe17e28d8918b3fae67ec4d,5fe22dab6d65c5d8f126f6f8,2020-12-22_12h33.09.853,weird_font2,2020.2.10,Linux x86_64,60,5fe21653eed16dd302de4693,,,,,,,,,,,,patience,-0.137243045,0.025905938,1,0,0,1.58244,polygon_2,0,virtue,0,2,2,17,1,,,,,,,
,,,,,,,,,,,,,,candle-sf.jpeg,wax,candle,sf,5fe17e28d8918b3fae67ec4d,5fe22dab6d65c5d8f126f6f8,2020-12-22_12h33.09.853,weird_font2,2020.2.10,Linux x86_64,60,5fe21653eed16dd302de4693,,,,,,,,,,,,candle,-0.076834542,0.012756499,1,0,0,1.873425,polygon_2,0,wax,0,3,3,18,1,,,,,,,
,,,,,,,,,,,,,,sheep-sf.jpeg,herd,sheep,sf,5fe17e28d8918b3fae67ec4d,5fe22dab6d65c5d8f126f6f8,2020-12-22_12h33.09.853,weird_font2,2020.2.10,Linux x86_64,60,5fe21653eed16dd302de4693,,,,,,,,,,,,sheep,-0.068473481,-0.018776648,1,0,0,1.615985,polygon_2,0,herd,0,4,4,7,1,,,,,,,
,,,,,,,,,,,,,,crash-a.jpeg,accident,crash,a,5fe17e28d8918b3fae67ec4d,5fe22dab6d65c5d8f126f6f8,2020-12-22_12h33.09.853,weird_font2,2020.2.10,Linux x86_64,60,5fe21653eed16dd302de4693,,,,,,,,,,,,crash,-0.056438381,0.005316254,1,0,0,1.31336,polygon_2,0,accident,0,5,5,0,1,,,,,,,
,,,,,,,,,,,,,,happiness-sf.jpeg,joy,happiness,sf,5fe17e28d8918b3fae67ec4d,5fe22dab6d65c5d8f126f6f8,2020-12-22_12h33.09.853,weird_font2,2020.2.10,Linux x86_64,60,5fe21653eed16dd302de4693,,,,,,,,,,,,,-0.023259034,0.031981858,1,0,0,1.48827,polygon_2,0,joy,0,6,6,8,1,,,,,,,
,,,,,,,,,,,,,,wheel-sf.jpeg,tire,wheel,sf,5fe17e28d8918b3fae67ec4d,5fe22dab6d65c5d8f126f6f8,2020-12-22_12h33.09.853,weird_font2,2020.2.10,Linux x86_64,60,5fe21653eed16dd302de4693,,,,,,,,,,,,wheel,-0.04521841,-0.026813726,1,0,0,1.14185,polygon_2,0,tire,0,7,7,16,1,,,,,,,
,,,,,,,,,,,,,,sharp-sf.jpeg,knife,sharp,sf,5fe17e28d8918b3fae67ec4d,5fe22dab6d65c5d8f126f6f8,2020-12-22_12h33.09.853,weird_font2,2020.2.10,Linux x86_64,60,5fe21653eed16dd302de4693,,,,,,,,,,,,sharp,-0.082608905,0.035699635,1,0,0,1.185645,polygon_2,0,knife,0,8,8,10,1,,,,,,,
,,,,,,,,,,,,,,tense-a.jpeg,nervous,tense,a,5fe17e28d8918b3fae67ec4d,5fe22dab6d65c5d8f126f6f8,2020-12-22_12h33.09.853,weird_font2,2020.2.10,Linux x86_64,60,5fe21653eed16dd302de4693,,,,,,,,,,,,,-0.008033645,-0.321211061,1,0,0,3.45771,polygon_2,0,nervous,0,9,9,13,1,,,,,,,
,,,,,,,,,,,,,,article-a.jpeg,magazine,article,a,5fe17e28d8918b3fae67ec4d,5fe22dab6d65c5d8f126f6f8,2020-12-22_12h33.09.853,weird_font2,2020.2.10,Linux x86_64,60,5fe21653eed16dd302de4693,,,,,,,,,,,,article,-0.099894857,-0.003434637,1,0,0,10.458295,polygon_2,0,magazine,0,10,10,12,1,,,,,,,
,,,,,,,,,,,,,,trail-a.jpeg,path,trail,a,5fe17e28d8918b3fae67ec4d,5fe22dab6d65c5d8f126f6f8,2020-12-22_12h33.09.853,weird_font2,2020.2.10,Linux x86_64,60,5fe21653eed16dd302de4693,,,,,,,,,,,,,-0.01690088,-0.325132262,1,0,0,4.87103,polygon_2,0,path,0,11,11,14,1,,,,,,,
,,,,,,,,,,,,,,potato-sf.jpeg,chip,potato,sf,5fe17e28d8918b3fae67ec4d,5fe22dab6d65c5d8f126f6f8,2020-12-22_12h33.09.853,weird_font2,2020.2.10,Linux x86_64,60,5fe21653eed16dd302de4693,,,,,,,,,,,,potato,-0.001470079,0.00761054,1,0,0,1.524135,polygon_2,0,chip,0,12,12,2,1,,,,,,,
,,,,,,,,,,,,,,protect-sf.jpeg,guard,protect,sf,5fe17e28d8918b3fae67ec4d,5fe22dab6d65c5d8f126f6f8,2020-12-22_12h33.09.853,weird_font2,2020.2.10,Linux x86_64,60,5fe21653eed16dd302de4693,,,,,,,,,,,,protect,-0.006281558,-0.008759209,1,0,0,1.44736,polygon_2,0,guard,0,13,13,6,1,,,,,,,
,,,,,,,,,,,,,,blow-a.jpeg,wind,blow,a,5fe17e28d8918b3fae67ec4d,5fe22dab6d65c5d8f126f6f8,2020-12-22_12h33.09.853,weird_font2,2020.2.10,Linux x86_64,60,5fe21653eed16dd302de4693,,,,,,,,,,,,blow,-0.060583921,-0.007240566,1,0,0,1.71711,polygon_2,0,wind,0,14,14,19,1,,,,,,,
,,,,,,,,,,,,,,yard-sf.jpeg,fence,yard,sf,5fe17e28d8918b3fae67ec4d,5fe22dab6d65c5d8f126f6f8,2020-12-22_12h33.09.853,weird_font2,2020.2.10,Linux x86_64,60,5fe21653eed16dd302de4693,,,,,,,,,,,,,0.007290991,-0.317012956,1,0,0,5.24694,polygon_2,0,fence,0,15,15,5,1,,,,,,,
,,,,,,,,,,,,,,destory-a.jpeg,kill,destroy,a,5fe17e28d8918b3fae67ec4d,5fe22dab6d65c5d8f126f6f8,2020-12-22_12h33.09.853,weird_font2,2020.2.10,Linux x86_64,60,5fe21653eed16dd302de4693,,,,,,,,,,,,destroy,-0.080939047,0.010586948,1,0,0,1.74243,polygon_2,0,kill,0,16,16,9,1,,,,,,,
,,,,,,,,,,,,,,boss-a.jpeg,employee,boss,a,5fe17e28d8918b3fae67ec4d,5fe22dab6d65c5d8f126f6f8,2020-12-22_12h33.09.853,weird_font2,2020.2.10,Linux x86_64,60,5fe21653eed16dd302de4693,,,,,,,,,,,,boss,-0.039125948,0.026592871,1,0,0,2.853835,polygon_2,0,employee,0,17,17,4,1,,,,,,,
,,,,,,,,,,,,,,swim-a.jpeg,dive,swim,a,5fe17e28d8918b3fae67ec4d,5fe22dab6d65c5d8f126f6f8,2020-12-22_12h33.09.853,weird_font2,2020.2.10,Linux x86_64,60,5fe21653eed16dd302de4693,,,,,,,,,,,,swim,-0.087617128,-0.021819261,1,0,0,4.12039,polygon_2,0,dive,0,18,18,3,1,,,,,,,
,,,,,,,,,,,,,,contact-a.jpeg,lens,contact,a,5fe17e28d8918b3fae67ec4d,5fe22dab6d65c5d8f126f6f8,2020-12-22_12h33.09.853,weird_font2,2020.2.10,Linux x86_64,60,5fe21653eed16dd302de4693,,,,,,,,,,,,contact,0.005948058,-0.035461314,1,0,0,2.030715,polygon_2,0,lens,0,19,19,11,1,,,,,,,
,,,,,,,,,,,,,,,,,,5fe17e28d8918b3fae67ec4d,5fe22dab6d65c5d8f126f6f8,2020-12-22_12h33.09.853,weird_font2,2020.2.10,Linux x86_64,60,5fe21653eed16dd302de4693,,,,,,,,,,,,,,,,,,,,,,,,,,,0.010030376,-0.323907503,1,0,0,4.4384,end_polygon
