key_resp.keys,key_resp.rt,mouse.x,mouse.y,mouse.leftButton,mouse.midButton,mouse.rightButton,mouse.time,mouse.clicked_name,cb.thisRepN,cb.thisTrialN,cb.thisN,cb.thisIndex,cb.ran,Itempairs,Forward,Backward,AbsoluteValue,cue1,targ1,font,images,participant,date,expName,psychopyVersion,OS,frameRate,study_id,session,atypic_slider.response,atypic_slider.rt,normal_slider.response,normal_slider.rt,mouse_3.x,mouse_3.y,mouse_3.leftButton,mouse_3.midButton,mouse_3.rightButton,mouse_3.time,mouse_3.clicked_name,textbox.text,mouse_5.x,mouse_5.y,mouse_5.leftButton,mouse_5.midButton,mouse_5.rightButton,mouse_5.time,mouse_5.clicked_name,correctAns,textbox_response,test.thisRepN,test.thisTrialN,test.thisN,test.thisIndex,test.ran,mouse_2.x,mouse_2.y,mouse_2.leftButton,mouse_2.midButton,mouse_2.rightButton,mouse_2.time,mouse_2.clicked_name
y,13.84192,0.0192,-0.3128,1,0,0,33.38212,cont1,0,0,0,14,1,paint picture,0.036,0.031,0.005,paint,picture,flu,images/paint-picture-arial1.png,5c856d52bce73c00018c4508,2020-12-28_17h53.38.868,weird_font_low_1,2020.2.10,Win32,60,5fea697315b59ba2fdb2940e,5fea6fbed1340caa14568e9e,,,,,,,,,,,,,,,,,,,,,,,,,,,,,,,,,
,,,,,,,,,0,1,1,11,1,novel story,0.034,0.034,0,novel,story,flu,images/novel-story-arial1.png,5c856d52bce73c00018c4508,2020-12-28_17h53.38.868,weird_font_low_1,2020.2.10,Win32,60,5fea697315b59ba2fdb2940e,5fea6fbed1340caa14568e9e,,,,,,,,,,,,,,,,,,,,,,,,,,,,,,,,,
,,,,,,,,,0,2,2,4,1,curve shape,0.018,0.011,0.007,curve,shape,flu,images/curve-shape-arial1.png,5c856d52bce73c00018c4508,2020-12-28_17h53.38.868,weird_font_low_1,2020.2.10,Win32,60,5fea697315b59ba2fdb2940e,5fea6fbed1340caa14568e9e,,,,,,,,,,,,,,,,,,,,,,,,,,,,,,,,,
,,,,,,,,,0,3,3,10,1,native foreign,0.056,0.031,0.025,native,foreign,SF,images/native-foreign-sf.png,5c856d52bce73c00018c4508,2020-12-28_17h53.38.868,weird_font_low_1,2020.2.10,Win32,60,5fea697315b59ba2fdb2940e,5fea6fbed1340caa14568e9e,,,,,,,,,,,,,,,,,,,,,,,,,,,,,,,,,
,,,,,,,,,0,4,4,3,1,college student ,0.035,0.046,0.011,college,student,flu,images/college - student-arial1.png,5c856d52bce73c00018c4508,2020-12-28_17h53.38.868,weird_font_low_1,2020.2.10,Win32,60,5fea697315b59ba2fdb2940e,5fea6fbed1340caa14568e9e,,,,,,,,,,,,,,,,,,,,,,,,,,,,,,,,,
,,,,,,,,,0,5,5,1,1,block street,0.04,0.019,0.021,block,street,SF,images/block-street-sf.png,5c856d52bce73c00018c4508,2020-12-28_17h53.38.868,weird_font_low_1,2020.2.10,Win32,60,5fea697315b59ba2fdb2940e,5fea6fbed1340caa14568e9e,,,,,,,,,,,,,,,,,,,,,,,,,,,,,,,,,
,,,,,,,,,0,6,6,12,1,object symbol,0.014,0.021,0.007,object,symbol,SF,images/object-symbol-sf.png,5c856d52bce73c00018c4508,2020-12-28_17h53.38.868,weird_font_low_1,2020.2.10,Win32,60,5fea697315b59ba2fdb2940e,5fea6fbed1340caa14568e9e,,,,,,,,,,,,,,,,,,,,,,,,,,,,,,,,,
,,,,,,,,,0,7,7,7,1,group meeting,0.027,0.041,0.014,group,meeting,SF,images/group-meeting-sf.png,5c856d52bce73c00018c4508,2020-12-28_17h53.38.868,weird_font_low_1,2020.2.10,Win32,60,5fea697315b59ba2fdb2940e,5fea6fbed1340caa14568e9e,,,,,,,,,,,,,,,,,,,,,,,,,,,,,,,,,
,,,,,,,,,0,8,8,2,1,child mother,0.03,0.01,0.02,child,mother,SF,images/child-mother-sf.png,5c856d52bce73c00018c4508,2020-12-28_17h53.38.868,weird_font_low_1,2020.2.10,Win32,60,5fea697315b59ba2fdb2940e,5fea6fbed1340caa14568e9e,,,,,,,,,,,,,,,,,,,,,,,,,,,,,,,,,
,,,,,,,,,0,9,9,22,1,throat voice,0.039,0.02,0.019,throat ,voice ,SF,images/throat-voice-sf.png,5c856d52bce73c00018c4508,2020-12-28_17h53.38.868,weird_font_low_1,2020.2.10,Win32,60,5fea697315b59ba2fdb2940e,5fea6fbed1340caa14568e9e,,,,,,,,,,,,,,,,,,,,,,,,,,,,,,,,,
,,,,,,,,,0,10,10,5,1,engine machine,0.033,0.027,0.006,engine,machine,flu,images/engine-machine-arial1.png,5c856d52bce73c00018c4508,2020-12-28_17h53.38.868,weird_font_low_1,2020.2.10,Win32,60,5fea697315b59ba2fdb2940e,5fea6fbed1340caa14568e9e,,,,,,,,,,,,,,,,,,,,,,,,,,,,,,,,,
,,,,,,,,,0,11,11,13,1,office doctor,0.014,0.01,0.004,office,doctor ,flu,images/office-doctor-arial1.png,5c856d52bce73c00018c4508,2020-12-28_17h53.38.868,weird_font_low_1,2020.2.10,Win32,60,5fea697315b59ba2fdb2940e,5fea6fbed1340caa14568e9e,,,,,,,,,,,,,,,,,,,,,,,,,,,,,,,,,
,,,,,,,,,0,12,12,17,1,range rifle,0.015,0.028,0.013,range,rifle,flu,images/range-rifle-arial1.png,5c856d52bce73c00018c4508,2020-12-28_17h53.38.868,weird_font_low_1,2020.2.10,Win32,60,5fea697315b59ba2fdb2940e,5fea6fbed1340caa14568e9e,,,,,,,,,,,,,,,,,,,,,,,,,,,,,,,,,
,,,,,,,,,0,13,13,21,1,taste touch,0.016,0.012,0.004,taste,touch,SF,images/taste-touch-sf.png,5c856d52bce73c00018c4508,2020-12-28_17h53.38.868,weird_font_low_1,2020.2.10,Win32,60,5fea697315b59ba2fdb2940e,5fea6fbed1340caa14568e9e,,,,,,,,,,,,,,,,,,,,,,,,,,,,,,,,,
,,,,,,,,,0,14,14,16,1,quarter dollar,0.061,0.027,0.034,quarter,dollar,flu,images/quarter-dollar-arial1.png,5c856d52bce73c00018c4508,2020-12-28_17h53.38.868,weird_font_low_1,2020.2.10,Win32,60,5fea697315b59ba2fdb2940e,5fea6fbed1340caa14568e9e,,,,,,,,,,,,,,,,,,,,,,,,,,,,,,,,,
,,,,,,,,,0,15,15,0,1,angle corner,0.02,0.029,0.009,angle,corner,SF,images/angle-corner-sf.png,5c856d52bce73c00018c4508,2020-12-28_17h53.38.868,weird_font_low_1,2020.2.10,Win32,60,5fea697315b59ba2fdb2940e,5fea6fbed1340caa14568e9e,,,,,,,,,,,,,,,,,,,,,,,,,,,,,,,,,
,,,,,,,,,0,16,16,23,1,train plane,0.051,0.049,0.002,train,plane,flu,images/train-plane-arial1.png,5c856d52bce73c00018c4508,2020-12-28_17h53.38.868,weird_font_low_1,2020.2.10,Win32,60,5fea697315b59ba2fdb2940e,5fea6fbed1340caa14568e9e,,,,,,,,,,,,,,,,,,,,,,,,,,,,,,,,,
,,,,,,,,,0,17,17,18,1,report weather,0.015,0.024,0.009,report,weather,flu,images/report-weather-arial1.png,5c856d52bce73c00018c4508,2020-12-28_17h53.38.868,weird_font_low_1,2020.2.10,Win32,60,5fea697315b59ba2fdb2940e,5fea6fbed1340caa14568e9e,,,,,,,,,,,,,,,,,,,,,,,,,,,,,,,,,
,,,,,,,,,0,18,18,19,1,sheet cover,0.021,0.053,0.032,sheet,cover,SF,images/sheet-cover-sf.png,5c856d52bce73c00018c4508,2020-12-28_17h53.38.868,weird_font_low_1,2020.2.10,Win32,60,5fea697315b59ba2fdb2940e,5fea6fbed1340caa14568e9e,,,,,,,,,,,,,,,,,,,,,,,,,,,,,,,,,
,,,,,,,,,0,19,19,9,1,nation state,0.042,0.055,0.013,nation,state,flu,images/nation-state-arial1.png,5c856d52bce73c00018c4508,2020-12-28_17h53.38.868,weird_font_low_1,2020.2.10,Win32,60,5fea697315b59ba2fdb2940e,5fea6fbed1340caa14568e9e,,,,,,,,,,,,,,,,,,,,,,,,,,,,,,,,,
,,,,,,,,,0,20,20,6,1,factory product,0.02,0.028,0.008,factory,product,SF,images/factory-product-sf.png,5c856d52bce73c00018c4508,2020-12-28_17h53.38.868,weird_font_low_1,2020.2.10,Win32,60,5fea697315b59ba2fdb2940e,5fea6fbed1340caa14568e9e,,,,,,,,,,,,,,,,,,,,,,,,,,,,,,,,,
,,,,,,,,,0,21,21,15,1,people world,0.014,0.03,0.016,people,world,SF,images/people-world-sf.png,5c856d52bce73c00018c4508,2020-12-28_17h53.38.868,weird_font_low_1,2020.2.10,Win32,60,5fea697315b59ba2fdb2940e,5fea6fbed1340caa14568e9e,,,,,,,,,,,,,,,,,,,,,,,,,,,,,,,,,
,,,,,,,,,0,22,22,20,1,stick branch,0.067,0.047,0.02,stick,branch,SF,images/stick-branch-sf.png,5c856d52bce73c00018c4508,2020-12-28_17h53.38.868,weird_font_low_1,2020.2.10,Win32,60,5fea697315b59ba2fdb2940e,5fea6fbed1340caa14568e9e,,,,,,,,,,,,,,,,,,,,,,,,,,,,,,,,,
,,,,,,,,,0,23,23,8,1,lunch supper,0.019,0.028,0.009,lunch,supper,flu,images/lunch-supper-arial1.png,5c856d52bce73c00018c4508,2020-12-28_17h53.38.868,weird_font_low_1,2020.2.10,Win32,60,5fea697315b59ba2fdb2940e,5fea6fbed1340caa14568e9e,,,,,,,,,,,,,,,,,,,,,,,,,,,,,,,,,
,,,,,,,,,,,,,,stick branch,0.067,0.047,0.02,stick,branch,SF,images/stick-branch-sf.png,5c856d52bce73c00018c4508,2020-12-28_17h53.38.868,weird_font_low_1,2020.2.10,Win32,60,5fea697315b59ba2fdb2940e,5fea6fbed1340caa14568e9e,90.48,13.15912,90.32,4.228225,0.0128,-0.4216,1,0,0,21.19741,polygon,branch,0.1616,-0.0136,1,0,0,2.64572,polygon_2,1,stick,0,0,0,20,1,,,,,,,
,,,,,,,,,,,,,,object symbol,0.014,0.021,0.007,object,symbol,SF,images/object-symbol-sf.png,5c856d52bce73c00018c4508,2020-12-28_17h53.38.868,weird_font_low_1,2020.2.10,Win32,60,5fea697315b59ba2fdb2940e,5fea6fbed1340caa14568e9e,,,,,,,,,,,,,0.0032,-0.3224,1,0,0,5.818825,polygon_2,1,object,0,1,1,12,1,,,,,,,
,,,,,,,,,,,,,,angle corner,0.02,0.029,0.009,angle,corner,SF,images/angle-corner-sf.png,5c856d52bce73c00018c4508,2020-12-28_17h53.38.868,weird_font_low_1,2020.2.10,Win32,60,5fea697315b59ba2fdb2940e,5fea6fbed1340caa14568e9e,,,,,,,,,,,,,0.0032,-0.3224,1,0,0,2.85552,polygon_2,1,angle,0,2,2,0,1,,,,,,,
,,,,,,,,,,,,,,engine machine,0.033,0.027,0.006,engine,machine,flu,images/engine-machine-arial1.png,5c856d52bce73c00018c4508,2020-12-28_17h53.38.868,weird_font_low_1,2020.2.10,Win32,60,5fea697315b59ba2fdb2940e,5fea6fbed1340caa14568e9e,,,,,,,,,,,,,0.0032,-0.3224,1,0,0,2.291525,polygon_2,1,engine,0,3,3,5,1,,,,,,,
,,,,,,,,,,,,,,paint picture,0.036,0.031,0.005,paint,picture,flu,images/paint-picture-arial1.png,5c856d52bce73c00018c4508,2020-12-28_17h53.38.868,weird_font_low_1,2020.2.10,Win32,60,5fea697315b59ba2fdb2940e,5fea6fbed1340caa14568e9e,,,,,,,,,,,,,0.0032,-0.3224,1,0,0,5.373995,polygon_2,1,paint,0,4,4,14,1,,,,,,,
,,,,,,,,,,,,,,range rifle,0.015,0.028,0.013,range,rifle,flu,images/range-rifle-arial1.png,5c856d52bce73c00018c4508,2020-12-28_17h53.38.868,weird_font_low_1,2020.2.10,Win32,60,5fea697315b59ba2fdb2940e,5fea6fbed1340caa14568e9e,,,,,,,,,,,,,0.0032,-0.3224,1,0,0,1.488675,polygon_2,1,range,0,5,5,17,1,,,,,,,
,,,,,,,,,,,,,,office doctor,0.014,0.01,0.004,office,doctor ,flu,images/office-doctor-arial1.png,5c856d52bce73c00018c4508,2020-12-28_17h53.38.868,weird_font_low_1,2020.2.10,Win32,60,5fea697315b59ba2fdb2940e,5fea6fbed1340caa14568e9e,,,,,,,,,,,,,0.0032,-0.3224,1,0,0,2.42006,polygon_2,1,office,0,6,6,13,1,,,,,,,
,,,,,,,,,,,,,,factory product,0.02,0.028,0.008,factory,product,SF,images/factory-product-sf.png,5c856d52bce73c00018c4508,2020-12-28_17h53.38.868,weird_font_low_1,2020.2.10,Win32,60,5fea697315b59ba2fdb2940e,5fea6fbed1340caa14568e9e,,,,,,,,,,,,,0.0032,-0.3224,1,0,0,3.127275,polygon_2,1,factory,0,7,7,6,1,,,,,,,
,,,,,,,,,,,,,,native foreign,0.056,0.031,0.025,native,foreign,SF,images/native-foreign-sf.png,5c856d52bce73c00018c4508,2020-12-28_17h53.38.868,weird_font_low_1,2020.2.10,Win32,60,5fea697315b59ba2fdb2940e,5fea6fbed1340caa14568e9e,,,,,,,,,,,,,0.0032,-0.3224,1,0,0,1.554405,polygon_2,1,native,0,8,8,10,1,,,,,,,
,,,,,,,,,,,,,,group meeting,0.027,0.041,0.014,group,meeting,SF,images/group-meeting-sf.png,5c856d52bce73c00018c4508,2020-12-28_17h53.38.868,weird_font_low_1,2020.2.10,Win32,60,5fea697315b59ba2fdb2940e,5fea6fbed1340caa14568e9e,,,,,,,,,,,,,0.0032,-0.3224,1,0,0,1.407695,polygon_2,1,group,0,9,9,7,1,,,,,,,
,,,,,,,,,,,,,,child mother,0.03,0.01,0.02,child,mother,SF,images/child-mother-sf.png,5c856d52bce73c00018c4508,2020-12-28_17h53.38.868,weird_font_low_1,2020.2.10,Win32,60,5fea697315b59ba2fdb2940e,5fea6fbed1340caa14568e9e,,,,,,,,,,,,,0.0032,-0.3224,1,0,0,2.65332,polygon_2,1,child,0,10,10,2,1,,,,,,,
,,,,,,,,,,,,,,taste touch,0.016,0.012,0.004,taste,touch,SF,images/taste-touch-sf.png,5c856d52bce73c00018c4508,2020-12-28_17h53.38.868,weird_font_low_1,2020.2.10,Win32,60,5fea697315b59ba2fdb2940e,5fea6fbed1340caa14568e9e,,,,,,,,,,,,,0.0032,-0.3224,1,0,0,1.775815,polygon_2,1,taste,0,11,11,21,1,,,,,,,
,,,,,,,,,,,,,,people world,0.014,0.03,0.016,people,world,SF,images/people-world-sf.png,5c856d52bce73c00018c4508,2020-12-28_17h53.38.868,weird_font_low_1,2020.2.10,Win32,60,5fea697315b59ba2fdb2940e,5fea6fbed1340caa14568e9e,,,,,,,,,,,,,0.0032,-0.3224,1,0,0,2.061425,polygon_2,1,people,0,12,12,15,1,,,,,,,
,,,,,,,,,,,,,,quarter dollar,0.061,0.027,0.034,quarter,dollar,flu,images/quarter-dollar-arial1.png,5c856d52bce73c00018c4508,2020-12-28_17h53.38.868,weird_font_low_1,2020.2.10,Win32,60,5fea697315b59ba2fdb2940e,5fea6fbed1340caa14568e9e,,,,,,,,,,,,dollar,-0.0752,-0.0184,1,0,0,1.94549,polygon_2,1,quarter,0,13,13,16,1,,,,,,,
,,,,,,,,,,,,,,curve shape,0.018,0.011,0.007,curve,shape,flu,images/curve-shape-arial1.png,5c856d52bce73c00018c4508,2020-12-28_17h53.38.868,weird_font_low_1,2020.2.10,Win32,60,5fea697315b59ba2fdb2940e,5fea6fbed1340caa14568e9e,,,,,,,,,,,,,0.008,-0.3128,1,0,0,2.30034,polygon_2,1,curve,0,14,14,4,1,,,,,,,
,,,,,,,,,,,,,,college student ,0.035,0.046,0.011,college,student,flu,images/college - student-arial1.png,5c856d52bce73c00018c4508,2020-12-28_17h53.38.868,weird_font_low_1,2020.2.10,Win32,60,5fea697315b59ba2fdb2940e,5fea6fbed1340caa14568e9e,,,,,,,,,,,,,0.008,-0.3128,1,0,0,3.758805,polygon_2,1,college,0,15,15,3,1,,,,,,,
,,,,,,,,,,,,,,nation state,0.042,0.055,0.013,nation,state,flu,images/nation-state-arial1.png,5c856d52bce73c00018c4508,2020-12-28_17h53.38.868,weird_font_low_1,2020.2.10,Win32,60,5fea697315b59ba2fdb2940e,5fea6fbed1340caa14568e9e,,,,,,,,,,,,,0.008,-0.3128,1,0,0,1.554595,polygon_2,1,nation,0,16,16,9,1,,,,,,,
,,,,,,,,,,,,,,lunch supper,0.019,0.028,0.009,lunch,supper,flu,images/lunch-supper-arial1.png,5c856d52bce73c00018c4508,2020-12-28_17h53.38.868,weird_font_low_1,2020.2.10,Win32,60,5fea697315b59ba2fdb2940e,5fea6fbed1340caa14568e9e,,,,,,,,,,,,,0.008,-0.3128,1,0,0,1.787025,polygon_2,1,lunch,0,17,17,8,1,,,,,,,
,,,,,,,,,,,,,,sheet cover,0.021,0.053,0.032,sheet,cover,SF,images/sheet-cover-sf.png,5c856d52bce73c00018c4508,2020-12-28_17h53.38.868,weird_font_low_1,2020.2.10,Win32,60,5fea697315b59ba2fdb2940e,5fea6fbed1340caa14568e9e,,,,,,,,,,,,,0.008,-0.3128,1,0,0,7.498115,polygon_2,1,sheet,0,18,18,19,1,,,,,,,
,,,,,,,,,,,,,,novel story,0.034,0.034,0,novel,story,flu,images/novel-story-arial1.png,5c856d52bce73c00018c4508,2020-12-28_17h53.38.868,weird_font_low_1,2020.2.10,Win32,60,5fea697315b59ba2fdb2940e,5fea6fbed1340caa14568e9e,,,,,,,,,,,,,0.008,-0.3128,1,0,0,1.10647,polygon_2,1,novel,0,19,19,11,1,,,,,,,
,,,,,,,,,,,,,,train plane,0.051,0.049,0.002,train,plane,flu,images/train-plane-arial1.png,5c856d52bce73c00018c4508,2020-12-28_17h53.38.868,weird_font_low_1,2020.2.10,Win32,60,5fea697315b59ba2fdb2940e,5fea6fbed1340caa14568e9e,,,,,,,,,,,,,0.008,-0.3128,1,0,0,1.0569,polygon_2,1,train,0,20,20,23,1,,,,,,,
,,,,,,,,,,,,,,report weather,0.015,0.024,0.009,report,weather,flu,images/report-weather-arial1.png,5c856d52bce73c00018c4508,2020-12-28_17h53.38.868,weird_font_low_1,2020.2.10,Win32,60,5fea697315b59ba2fdb2940e,5fea6fbed1340caa14568e9e,,,,,,,,,,,,,0.008,-0.3128,1,0,0,0.925445,polygon_2,1,report,0,21,21,18,1,,,,,,,
,,,,,,,,,,,,,,block street,0.04,0.019,0.021,block,street,SF,images/block-street-sf.png,5c856d52bce73c00018c4508,2020-12-28_17h53.38.868,weird_font_low_1,2020.2.10,Win32,60,5fea697315b59ba2fdb2940e,5fea6fbed1340caa14568e9e,,,,,,,,,,,,,0.008,-0.3128,1,0,0,1.379805,polygon_2,1,block,0,22,22,1,1,,,,,,,
,,,,,,,,,,,,,,throat voice,0.039,0.02,0.019,throat ,voice ,SF,images/throat-voice-sf.png,5c856d52bce73c00018c4508,2020-12-28_17h53.38.868,weird_font_low_1,2020.2.10,Win32,60,5fea697315b59ba2fdb2940e,5fea6fbed1340caa14568e9e,,,,,,,,,,,,voice,-0.0416,-0.0136,1,0,0,3.09333,polygon_2,1,throat ,0,23,23,22,1,,,,,,,
,,,,,,,,,,,,,,,,,,,,,,5c856d52bce73c00018c4508,2020-12-28_17h53.38.868,weird_font_low_1,2020.2.10,Win32,60,5fea697315b59ba2fdb2940e,5fea6fbed1340caa14568e9e,,,,,,,,,,,,,,,,,,,,,,,,,,,0.0016,-0.3256,1,0,0,2.251355,end_polygon
