key_resp.keys,key_resp.rt,mouse.x,mouse.y,mouse.leftButton,mouse.midButton,mouse.rightButton,mouse.time,mouse.clicked_name,cb.thisRepN,cb.thisTrialN,cb.thisN,cb.thisIndex,cb.ran,Itempairs,Forward,Backward,AbsoluteValue,cue1,targ1,font,images,participant,date,expName,psychopyVersion,OS,frameRate,study_id,session,atypic_slider.response,atypic_slider.rt,normal_slider.response,normal_slider.rt,mouse_3.x,mouse_3.y,mouse_3.leftButton,mouse_3.midButton,mouse_3.rightButton,mouse_3.time,mouse_3.clicked_name,textbox.text,mouse_5.x,mouse_5.y,mouse_5.leftButton,mouse_5.midButton,mouse_5.rightButton,mouse_5.time,mouse_5.clicked_name,correctAns,textbox_response,test.thisRepN,test.thisTrialN,test.thisN,test.thisIndex,test.ran,mouse_2.x,mouse_2.y,mouse_2.leftButton,mouse_2.midButton,mouse_2.rightButton,mouse_2.time,mouse_2.clicked_name
y,11.35467,-0.003278657,-0.32404374,1,0,0,9.21438,cont1,0,0,0,20,1,stick branch,0.067,0.047,0.02,stick,branch,SF,images/stick-branch-sf.png,5eb2b9daade83c041e91d4b9,2020-12-28_18h59.31.396,weird_font_low_1,2020.2.10,Win32,60,5fea697315b59ba2fdb2940e,5fea713cd92c4a27e5cc7711,,,,,,,,,,,,,,,,,,,,,,,,,,,,,,,,,
,,,,,,,,,0,1,1,10,1,native foreign,0.056,0.031,0.025,native,foreign,SF,images/native-foreign-sf.png,5eb2b9daade83c041e91d4b9,2020-12-28_18h59.31.396,weird_font_low_1,2020.2.10,Win32,60,5fea697315b59ba2fdb2940e,5fea713cd92c4a27e5cc7711,,,,,,,,,,,,,,,,,,,,,,,,,,,,,,,,,
,,,,,,,,,0,2,2,19,1,sheet cover,0.021,0.053,0.032,sheet,cover,SF,images/sheet-cover-sf.png,5eb2b9daade83c041e91d4b9,2020-12-28_18h59.31.396,weird_font_low_1,2020.2.10,Win32,60,5fea697315b59ba2fdb2940e,5fea713cd92c4a27e5cc7711,,,,,,,,,,,,,,,,,,,,,,,,,,,,,,,,,
,,,,,,,,,0,3,3,17,1,range rifle,0.015,0.028,0.013,range,rifle,flu,images/range-rifle-arial1.png,5eb2b9daade83c041e91d4b9,2020-12-28_18h59.31.396,weird_font_low_1,2020.2.10,Win32,60,5fea697315b59ba2fdb2940e,5fea713cd92c4a27e5cc7711,,,,,,,,,,,,,,,,,,,,,,,,,,,,,,,,,
,,,,,,,,,0,4,4,11,1,novel story,0.034,0.034,0,novel,story,flu,images/novel-story-arial1.png,5eb2b9daade83c041e91d4b9,2020-12-28_18h59.31.396,weird_font_low_1,2020.2.10,Win32,60,5fea697315b59ba2fdb2940e,5fea713cd92c4a27e5cc7711,,,,,,,,,,,,,,,,,,,,,,,,,,,,,,,,,
,,,,,,,,,0,5,5,3,1,college student ,0.035,0.046,0.011,college,student,flu,images/college - student-arial1.png,5eb2b9daade83c041e91d4b9,2020-12-28_18h59.31.396,weird_font_low_1,2020.2.10,Win32,60,5fea697315b59ba2fdb2940e,5fea713cd92c4a27e5cc7711,,,,,,,,,,,,,,,,,,,,,,,,,,,,,,,,,
,,,,,,,,,0,6,6,5,1,engine machine,0.033,0.027,0.006,engine,machine,flu,images/engine-machine-arial1.png,5eb2b9daade83c041e91d4b9,2020-12-28_18h59.31.396,weird_font_low_1,2020.2.10,Win32,60,5fea697315b59ba2fdb2940e,5fea713cd92c4a27e5cc7711,,,,,,,,,,,,,,,,,,,,,,,,,,,,,,,,,
,,,,,,,,,0,7,7,14,1,paint picture,0.036,0.031,0.005,paint,picture,flu,images/paint-picture-arial1.png,5eb2b9daade83c041e91d4b9,2020-12-28_18h59.31.396,weird_font_low_1,2020.2.10,Win32,60,5fea697315b59ba2fdb2940e,5fea713cd92c4a27e5cc7711,,,,,,,,,,,,,,,,,,,,,,,,,,,,,,,,,
,,,,,,,,,0,8,8,22,1,throat voice,0.039,0.02,0.019,throat ,voice ,SF,images/throat-voice-sf.png,5eb2b9daade83c041e91d4b9,2020-12-28_18h59.31.396,weird_font_low_1,2020.2.10,Win32,60,5fea697315b59ba2fdb2940e,5fea713cd92c4a27e5cc7711,,,,,,,,,,,,,,,,,,,,,,,,,,,,,,,,,
,,,,,,,,,0,9,9,2,1,child mother,0.03,0.01,0.02,child,mother,SF,images/child-mother-sf.png,5eb2b9daade83c041e91d4b9,2020-12-28_18h59.31.396,weird_font_low_1,2020.2.10,Win32,60,5fea697315b59ba2fdb2940e,5fea713cd92c4a27e5cc7711,,,,,,,,,,,,,,,,,,,,,,,,,,,,,,,,,
,,,,,,,,,0,10,10,4,1,curve shape,0.018,0.011,0.007,curve,shape,flu,images/curve-shape-arial1.png,5eb2b9daade83c041e91d4b9,2020-12-28_18h59.31.396,weird_font_low_1,2020.2.10,Win32,60,5fea697315b59ba2fdb2940e,5fea713cd92c4a27e5cc7711,,,,,,,,,,,,,,,,,,,,,,,,,,,,,,,,,
,,,,,,,,,0,11,11,23,1,train plane,0.051,0.049,0.002,train,plane,flu,images/train-plane-arial1.png,5eb2b9daade83c041e91d4b9,2020-12-28_18h59.31.396,weird_font_low_1,2020.2.10,Win32,60,5fea697315b59ba2fdb2940e,5fea713cd92c4a27e5cc7711,,,,,,,,,,,,,,,,,,,,,,,,,,,,,,,,,
,,,,,,,,,0,12,12,21,1,taste touch,0.016,0.012,0.004,taste,touch,SF,images/taste-touch-sf.png,5eb2b9daade83c041e91d4b9,2020-12-28_18h59.31.396,weird_font_low_1,2020.2.10,Win32,60,5fea697315b59ba2fdb2940e,5fea713cd92c4a27e5cc7711,,,,,,,,,,,,,,,,,,,,,,,,,,,,,,,,,
,,,,,,,,,0,13,13,6,1,factory product,0.02,0.028,0.008,factory,product,SF,images/factory-product-sf.png,5eb2b9daade83c041e91d4b9,2020-12-28_18h59.31.396,weird_font_low_1,2020.2.10,Win32,60,5fea697315b59ba2fdb2940e,5fea713cd92c4a27e5cc7711,,,,,,,,,,,,,,,,,,,,,,,,,,,,,,,,,
,,,,,,,,,0,14,14,0,1,angle corner,0.02,0.029,0.009,angle,corner,SF,images/angle-corner-sf.png,5eb2b9daade83c041e91d4b9,2020-12-28_18h59.31.396,weird_font_low_1,2020.2.10,Win32,60,5fea697315b59ba2fdb2940e,5fea713cd92c4a27e5cc7711,,,,,,,,,,,,,,,,,,,,,,,,,,,,,,,,,
,,,,,,,,,0,15,15,16,1,quarter dollar,0.061,0.027,0.034,quarter,dollar,flu,images/quarter-dollar-arial1.png,5eb2b9daade83c041e91d4b9,2020-12-28_18h59.31.396,weird_font_low_1,2020.2.10,Win32,60,5fea697315b59ba2fdb2940e,5fea713cd92c4a27e5cc7711,,,,,,,,,,,,,,,,,,,,,,,,,,,,,,,,,
,,,,,,,,,0,16,16,13,1,office doctor,0.014,0.01,0.004,office,doctor ,flu,images/office-doctor-arial1.png,5eb2b9daade83c041e91d4b9,2020-12-28_18h59.31.396,weird_font_low_1,2020.2.10,Win32,60,5fea697315b59ba2fdb2940e,5fea713cd92c4a27e5cc7711,,,,,,,,,,,,,,,,,,,,,,,,,,,,,,,,,
,,,,,,,,,0,17,17,1,1,block street,0.04,0.019,0.021,block,street,SF,images/block-street-sf.png,5eb2b9daade83c041e91d4b9,2020-12-28_18h59.31.396,weird_font_low_1,2020.2.10,Win32,60,5fea697315b59ba2fdb2940e,5fea713cd92c4a27e5cc7711,,,,,,,,,,,,,,,,,,,,,,,,,,,,,,,,,
,,,,,,,,,0,18,18,9,1,nation state,0.042,0.055,0.013,nation,state,flu,images/nation-state-arial1.png,5eb2b9daade83c041e91d4b9,2020-12-28_18h59.31.396,weird_font_low_1,2020.2.10,Win32,60,5fea697315b59ba2fdb2940e,5fea713cd92c4a27e5cc7711,,,,,,,,,,,,,,,,,,,,,,,,,,,,,,,,,
,,,,,,,,,0,19,19,15,1,people world,0.014,0.03,0.016,people,world,SF,images/people-world-sf.png,5eb2b9daade83c041e91d4b9,2020-12-28_18h59.31.396,weird_font_low_1,2020.2.10,Win32,60,5fea697315b59ba2fdb2940e,5fea713cd92c4a27e5cc7711,,,,,,,,,,,,,,,,,,,,,,,,,,,,,,,,,
,,,,,,,,,0,20,20,12,1,object symbol,0.014,0.021,0.007,object,symbol,SF,images/object-symbol-sf.png,5eb2b9daade83c041e91d4b9,2020-12-28_18h59.31.396,weird_font_low_1,2020.2.10,Win32,60,5fea697315b59ba2fdb2940e,5fea713cd92c4a27e5cc7711,,,,,,,,,,,,,,,,,,,,,,,,,,,,,,,,,
,,,,,,,,,0,21,21,18,1,report weather,0.015,0.024,0.009,report,weather,flu,images/report-weather-arial1.png,5eb2b9daade83c041e91d4b9,2020-12-28_18h59.31.396,weird_font_low_1,2020.2.10,Win32,60,5fea697315b59ba2fdb2940e,5fea713cd92c4a27e5cc7711,,,,,,,,,,,,,,,,,,,,,,,,,,,,,,,,,
,,,,,,,,,0,22,22,7,1,group meeting,0.027,0.041,0.014,group,meeting,SF,images/group-meeting-sf.png,5eb2b9daade83c041e91d4b9,2020-12-28_18h59.31.396,weird_font_low_1,2020.2.10,Win32,60,5fea697315b59ba2fdb2940e,5fea713cd92c4a27e5cc7711,,,,,,,,,,,,,,,,,,,,,,,,,,,,,,,,,
,,,,,,,,,0,23,23,8,1,lunch supper,0.019,0.028,0.009,lunch,supper,flu,images/lunch-supper-arial1.png,5eb2b9daade83c041e91d4b9,2020-12-28_18h59.31.396,weird_font_low_1,2020.2.10,Win32,60,5fea697315b59ba2fdb2940e,5fea713cd92c4a27e5cc7711,,,,,,,,,,,,,,,,,,,,,,,,,,,,,,,,,
,,,,,,,,,,,,,,office doctor,0.014,0.01,0.004,office,doctor ,flu,images/office-doctor-arial1.png,5eb2b9daade83c041e91d4b9,2020-12-28_18h59.31.396,weird_font_low_1,2020.2.10,Win32,60,5fea697315b59ba2fdb2940e,5fea713cd92c4a27e5cc7711,48.46994869,14.697715,50,2.776995,-0.010928864,-0.400546542,1,0,0,17.727475,polygon,,-0.010928864,-0.314207675,1,0,0,14.10821,polygon_2,1,office,0,0,0,13,1,,,,,,,
,,,,,,,,,,,,,,throat voice,0.039,0.02,0.019,throat ,voice ,SF,images/throat-voice-sf.png,5eb2b9daade83c041e91d4b9,2020-12-28_18h59.31.396,weird_font_low_1,2020.2.10,Win32,60,5fea697315b59ba2fdb2940e,5fea713cd92c4a27e5cc7711,,,,,,,,,,,,voice,0.010928993,0.022404357,1,0,0,4.579485,polygon_2,1,throat ,0,1,1,22,1,,,,,,,
,,,,,,,,,,,,,,taste touch,0.016,0.012,0.004,taste,touch,SF,images/taste-touch-sf.png,5eb2b9daade83c041e91d4b9,2020-12-28_18h59.31.396,weird_font_low_1,2020.2.10,Win32,60,5fea697315b59ba2fdb2940e,5fea713cd92c4a27e5cc7711,,,,,,,,,,,,touch,0.042622983,-0.043169415,1,0,0,5.77584,polygon_2,1,taste,0,2,2,21,1,,,,,,,
,,,,,,,,,,,,,,lunch supper,0.019,0.028,0.009,lunch,supper,flu,images/lunch-supper-arial1.png,5eb2b9daade83c041e91d4b9,2020-12-28_18h59.31.396,weird_font_low_1,2020.2.10,Win32,60,5fea697315b59ba2fdb2940e,5fea713cd92c4a27e5cc7711,,,,,,,,,,,,supper,-0.041530025,0.027868838,1,0,0,1.38924,polygon_2,1,lunch,0,3,3,8,1,,,,,,,
,,,,,,,,,,,,,,train plane,0.051,0.049,0.002,train,plane,flu,images/train-plane-arial1.png,5eb2b9daade83c041e91d4b9,2020-12-28_18h59.31.396,weird_font_low_1,2020.2.10,Win32,60,5fea697315b59ba2fdb2940e,5fea713cd92c4a27e5cc7711,,,,,,,,,,,,plane,0.04371588,-0.022404421,1,0,0,1.31164,polygon_2,1,train,0,4,4,23,1,,,,,,,
,,,,,,,,,,,,,,stick branch,0.067,0.047,0.02,stick,branch,SF,images/stick-branch-sf.png,5eb2b9daade83c041e91d4b9,2020-12-28_18h59.31.396,weird_font_low_1,2020.2.10,Win32,60,5fea697315b59ba2fdb2940e,5fea713cd92c4a27e5cc7711,,,,,,,,,,,,,-0.018579204,-0.023497283,1,0,0,4.274835,polygon_2,1,stick,0,5,5,20,1,,,,,,,
,,,,,,,,,,,,,,nation state,0.042,0.055,0.013,nation,state,flu,images/nation-state-arial1.png,5eb2b9daade83c041e91d4b9,2020-12-28_18h59.31.396,weird_font_low_1,2020.2.10,Win32,60,5fea697315b59ba2fdb2940e,5fea713cd92c4a27e5cc7711,,,,,,,,,,,,state,0.05136622,0.030054597,1,0,0,1.169315,polygon_2,1,nation,0,6,6,9,1,,,,,,,
,,,,,,,,,,,,,,novel story,0.034,0.034,0,novel,story,flu,images/novel-story-arial1.png,5eb2b9daade83c041e91d4b9,2020-12-28_18h59.31.396,weird_font_low_1,2020.2.10,Win32,60,5fea697315b59ba2fdb2940e,5fea713cd92c4a27e5cc7711,,,,,,,,,,,,story,0.019672163,-0.003825152,1,0,0,1.27394,polygon_2,1,novel,0,7,7,11,1,,,,,,,
,,,,,,,,,,,,,,paint picture,0.036,0.031,0.005,paint,picture,flu,images/paint-picture-arial1.png,5eb2b9daade83c041e91d4b9,2020-12-28_18h59.31.396,weird_font_low_1,2020.2.10,Win32,60,5fea697315b59ba2fdb2940e,5fea713cd92c4a27e5cc7711,,,,,,,,,,,,,0.039344295,0.006010914,1,0,0,1.210905,polygon_2,1,paint,0,8,8,14,1,,,,,,,
,,,,,,,,,,,,,,engine machine,0.033,0.027,0.006,engine,machine,flu,images/engine-machine-arial1.png,5eb2b9daade83c041e91d4b9,2020-12-28_18h59.31.396,weird_font_low_1,2020.2.10,Win32,60,5fea697315b59ba2fdb2940e,5fea713cd92c4a27e5cc7711,,,,,,,,,,,,motor,0.032786917,0.028961735,1,0,0,3.84592,polygon_2,1,engine,0,9,9,5,1,,,,,,,
,,,,,,,,,,,,,,group meeting,0.027,0.041,0.014,group,meeting,SF,images/group-meeting-sf.png,5eb2b9daade83c041e91d4b9,2020-12-28_18h59.31.396,weird_font_low_1,2020.2.10,Win32,60,5fea697315b59ba2fdb2940e,5fea713cd92c4a27e5cc7711,,,,,,,,,,,,meeting,0.027322436,0.012568291,1,0,0,1.077325,polygon_2,1,group,0,10,10,7,1,,,,,,,
,,,,,,,,,,,,,,sheet cover,0.021,0.053,0.032,sheet,cover,SF,images/sheet-cover-sf.png,5eb2b9daade83c041e91d4b9,2020-12-28_18h59.31.396,weird_font_low_1,2020.2.10,Win32,60,5fea697315b59ba2fdb2940e,5fea713cd92c4a27e5cc7711,,,,,,,,,,,,paper,0.065573804,0.003825088,1,0,0,1.63924,polygon_2,1,sheet,0,11,11,19,1,,,,,,,
,,,,,,,,,,,,,,angle corner,0.02,0.029,0.009,angle,corner,SF,images/angle-corner-sf.png,5eb2b9daade83c041e91d4b9,2020-12-28_18h59.31.396,weird_font_low_1,2020.2.10,Win32,60,5fea697315b59ba2fdb2940e,5fea713cd92c4a27e5cc7711,,,,,,,,,,,,corner,0.009836097,0.011475395,1,0,0,1.15565,polygon_2,1,angle,0,12,12,0,1,,,,,,,
,,,,,,,,,,,,,,range rifle,0.015,0.028,0.013,range,rifle,flu,images/range-rifle-arial1.png,5eb2b9daade83c041e91d4b9,2020-12-28_18h59.31.396,weird_font_low_1,2020.2.10,Win32,60,5fea697315b59ba2fdb2940e,5fea713cd92c4a27e5cc7711,,,,,,,,,,,,rifle,-0.007650175,0.006010914,1,0,0,1.13772,polygon_2,1,range,0,13,13,17,1,,,,,,,
,,,,,,,,,,,,,,curve shape,0.018,0.011,0.007,curve,shape,flu,images/curve-shape-arial1.png,5eb2b9daade83c041e91d4b9,2020-12-28_18h59.31.396,weird_font_low_1,2020.2.10,Win32,60,5fea697315b59ba2fdb2940e,5fea713cd92c4a27e5cc7711,,,,,,,,,,,,,-0.006557346,-0.298907194,1,0,0,3.16054,polygon_2,1,curve,0,14,14,4,1,,,,,,,
,,,,,,,,,,,,,,child mother,0.03,0.01,0.02,child,mother,SF,images/child-mother-sf.png,5eb2b9daade83c041e91d4b9,2020-12-28_18h59.31.396,weird_font_low_1,2020.2.10,Win32,60,5fea697315b59ba2fdb2940e,5fea713cd92c4a27e5cc7711,,,,,,,,,,,,mother,0.00327872,0.018032773,1,0,0,1.59455,polygon_2,1,child,0,15,15,2,1,,,,,,,
,,,,,,,,,,,,,,college student ,0.035,0.046,0.011,college,student,flu,images/college - student-arial1.png,5eb2b9daade83c041e91d4b9,2020-12-28_18h59.31.396,weird_font_low_1,2020.2.10,Win32,60,5fea697315b59ba2fdb2940e,5fea713cd92c4a27e5cc7711,,,,,,,,,,,,student,0.02622954,0.0387978,1,0,0,1.125405,polygon_2,1,college,0,16,16,3,1,,,,,,,
,,,,,,,,,,,,,,quarter dollar,0.061,0.027,0.034,quarter,dollar,flu,images/quarter-dollar-arial1.png,5eb2b9daade83c041e91d4b9,2020-12-28_18h59.31.396,weird_font_low_1,2020.2.10,Win32,60,5fea697315b59ba2fdb2940e,5fea713cd92c4a27e5cc7711,,,,,,,,,,,,dollar,0.017486371,0.010382466,1,0,0,1.041555,polygon_2,1,quarter,0,17,17,16,1,,,,,,,
,,,,,,,,,,,,,,factory product,0.02,0.028,0.008,factory,product,SF,images/factory-product-sf.png,5eb2b9daade83c041e91d4b9,2020-12-28_18h59.31.396,weird_font_low_1,2020.2.10,Win32,60,5fea697315b59ba2fdb2940e,5fea713cd92c4a27e5cc7711,,,,,,,,,,,,,0.00218589,-0.293442647,1,0,0,6.5276,polygon_2,1,factory,0,18,18,6,1,,,,,,,
,,,,,,,,,,,,,,native foreign,0.056,0.031,0.025,native,foreign,SF,images/native-foreign-sf.png,5eb2b9daade83c041e91d4b9,2020-12-28_18h59.31.396,weird_font_low_1,2020.2.10,Win32,60,5fea697315b59ba2fdb2940e,5fea713cd92c4a27e5cc7711,,,,,,,,,,,,,0.006557409,-0.30109292,1,0,0,5.651805,polygon_2,1,native,0,19,19,10,1,,,,,,,
,,,,,,,,,,,,,,block street,0.04,0.019,0.021,block,street,SF,images/block-street-sf.png,5eb2b9daade83c041e91d4b9,2020-12-28_18h59.31.396,weird_font_low_1,2020.2.10,Win32,60,5fea697315b59ba2fdb2940e,5fea713cd92c4a27e5cc7711,,,,,,,,,,,,street,0.048087531,-0.009289666,1,0,0,1.695075,polygon_2,1,block,0,20,20,1,1,,,,,,,
,,,,,,,,,,,,,,report weather,0.015,0.024,0.009,report,weather,flu,images/report-weather-arial1.png,5eb2b9daade83c041e91d4b9,2020-12-28_18h59.31.396,weird_font_low_1,2020.2.10,Win32,60,5fea697315b59ba2fdb2940e,5fea713cd92c4a27e5cc7711,,,,,,,,,,,,,-0.008743138,-0.305464572,1,0,0,3.622375,polygon_2,1,report,0,21,21,18,1,,,,,,,
,,,,,,,,,,,,,,object symbol,0.014,0.021,0.007,object,symbol,SF,images/object-symbol-sf.png,5eb2b9daade83c041e91d4b9,2020-12-28_18h59.31.396,weird_font_low_1,2020.2.10,Win32,60,5fea697315b59ba2fdb2940e,5fea713cd92c4a27e5cc7711,,,,,,,,,,,,,-0.008743138,-0.305464572,1,0,0,1.729455,polygon_2,1,object,0,22,22,12,1,,,,,,,
,,,,,,,,,,,,,,people world,0.014,0.03,0.016,people,world,SF,images/people-world-sf.png,5eb2b9daade83c041e91d4b9,2020-12-28_18h59.31.396,weird_font_low_1,2020.2.10,Win32,60,5fea697315b59ba2fdb2940e,5fea713cd92c4a27e5cc7711,,,,,,,,,,,,world,0.073224077,-0.006010977,1,0,0,7.52027,polygon_2,1,people,0,23,23,15,1,,,,,,,
,,,,,,,,,,,,,,,,,,,,,,5eb2b9daade83c041e91d4b9,2020-12-28_18h59.31.396,weird_font_low_1,2020.2.10,Win32,60,5fea697315b59ba2fdb2940e,5fea713cd92c4a27e5cc7711,,,,,,,,,,,,,,,,,,,,,,,,,,,-0.007650175,-0.286885269,1,0,0,1.335695,end_polygon
