key_resp.keys,key_resp.rt,mouse.x,mouse.y,mouse.leftButton,mouse.midButton,mouse.rightButton,mouse.time,mouse.clicked_name,mouse_4.x,mouse_4.y,mouse_4.leftButton,mouse_4.midButton,mouse_4.rightButton,mouse_4.time,mouse_4.clicked_name,cb.thisRepN,cb.thisTrialN,cb.thisN,cb.thisIndex,cb.ran,Itempairs,Forward,Backward,AbsoluteValue,cue1,targ1,font,images,participant,turkid,Age,Did you learn English before the age of 4?,date,expName,psychopyVersion,OS,frameRate,atypic_slider.response,atypic_slider.rt,normal_slider.response,normal_slider.rt,mouse_3.x,mouse_3.y,mouse_3.leftButton,mouse_3.midButton,mouse_3.rightButton,mouse_3.time,mouse_3.clicked_name,textbox.text,mouse_5.x,mouse_5.y,mouse_5.leftButton,mouse_5.midButton,mouse_5.rightButton,mouse_5.time,mouse_5.clicked_name,correctAns,textbox_response,test.thisRepN,test.thisTrialN,test.thisN,test.thisIndex,test.ran,mouse_2.x,mouse_2.y,mouse_2.leftButton,mouse_2.midButton,mouse_2.rightButton,mouse_2.time,mouse_2.clicked_name
y,9.766725,-0.001067236,-0.304695838,1,0,0,9.88007,cont1,-0.003201708,-0.327107791,1,0,0,4.30992,stop_stud,0,0,0,10,1,native foreign,0.056,0.031,0.025,native,foreign,SF,images/native-foreign-sf.png,Sam,AV1IVFVS4VWZP,24,Yes,2020-12-29_14h37.02.544,weird_font_low_1,2020.2.10,Win32,60,,,,,,,,,,,,,,,,,,,,,,,,,,,,,,,,,
,,,,,,,,,-0.001067236,-0.327107791,1,0,0,4.16416,stop_stud,0,1,1,6,1,factory product,0.02,0.028,0.008,factory,product,SF,images/factory-product-sf.png,Sam,AV1IVFVS4VWZP,24,Yes,2020-12-29_14h37.02.544,weird_font_low_1,2020.2.10,Win32,60,,,,,,,,,,,,,,,,,,,,,,,,,,,,,,,,,
,,,,,,,,,0.002134472,-0.327107791,1,0,0,1.649195,stop_stud,0,2,2,8,1,lunch supper,0.019,0.028,0.009,lunch,supper,flu,images/lunch-supper-arial1.png,Sam,AV1IVFVS4VWZP,24,Yes,2020-12-29_14h37.02.544,weird_font_low_1,2020.2.10,Win32,60,,,,,,,,,,,,,,,,,,,,,,,,,,,,,,,,,
,,,,,,,,,0.006403415,-0.335645678,1,0,0,4.066165,stop_stud,0,3,3,1,1,block street,0.04,0.019,0.021,block,street,SF,images/block-street-sf.png,Sam,AV1IVFVS4VWZP,24,Yes,2020-12-29_14h37.02.544,weird_font_low_1,2020.2.10,Win32,60,,,,,,,,,,,,,,,,,,,,,,,,,,,,,,,,,
,,,,,,,,,0.006403415,-0.330309498,1,0,0,3.26551,stop_stud,0,4,4,5,1,engine machine,0.033,0.027,0.006,engine,machine,flu,images/engine-machine-arial1.png,Sam,AV1IVFVS4VWZP,24,Yes,2020-12-29_14h37.02.544,weird_font_low_1,2020.2.10,Win32,60,,,,,,,,,,,,,,,,,,,,,,,,,,,,,,,,,
,,,,,,,,,0.009605123,-0.330309498,1,0,0,4.08267,stop_stud,0,5,5,13,1,office doctor,0.014,0.01,0.004,office,doctor ,flu,images/office-doctor-arial1.png,Sam,AV1IVFVS4VWZP,24,Yes,2020-12-29_14h37.02.544,weird_font_low_1,2020.2.10,Win32,60,,,,,,,,,,,,,,,,,,,,,,,,,,,,,,,,,
,,,,,,,,,0.009605123,-0.330309498,1,0,0,2.682535,stop_stud,0,6,6,9,1,nation state,0.042,0.055,0.013,nation,state,flu,images/nation-state-arial1.png,Sam,AV1IVFVS4VWZP,24,Yes,2020-12-29_14h37.02.544,weird_font_low_1,2020.2.10,Win32,60,,,,,,,,,,,,,,,,,,,,,,,,,,,,,,,,,
,,,,,,,,,0.010672359,-0.331376734,1,0,0,4.182485,stop_stud,0,7,7,4,1,curve shape,0.018,0.011,0.007,curve,shape,flu,images/curve-shape-arial1.png,Sam,AV1IVFVS4VWZP,24,Yes,2020-12-29_14h37.02.544,weird_font_low_1,2020.2.10,Win32,60,,,,,,,,,,,,,,,,,,,,,,,,,,,,,,,,,
,,,,,,,,,0.010672359,-0.331376734,1,0,0,4.14911,stop_stud,0,8,8,22,1,throat voice,0.039,0.02,0.019,throat ,voice ,SF,images/throat-voice-sf.png,Sam,AV1IVFVS4VWZP,24,Yes,2020-12-29_14h37.02.544,weird_font_low_1,2020.2.10,Win32,60,,,,,,,,,,,,,,,,,,,,,,,,,,,,,,,,,
,,,,,,,,,0.010672359,-0.331376734,1,0,0,2.015705,stop_stud,0,9,9,18,1,report weather,0.015,0.024,0.009,report,weather,flu,images/report-weather-arial1.png,Sam,AV1IVFVS4VWZP,24,Yes,2020-12-29_14h37.02.544,weird_font_low_1,2020.2.10,Win32,60,,,,,,,,,,,,,,,,,,,,,,,,,,,,,,,,,
,,,,,,,,,0.010672359,-0.331376734,1,0,0,1.649295,stop_stud,0,10,10,19,1,sheet cover,0.021,0.053,0.032,sheet,cover,SF,images/sheet-cover-sf.png,Sam,AV1IVFVS4VWZP,24,Yes,2020-12-29_14h37.02.544,weird_font_low_1,2020.2.10,Win32,60,,,,,,,,,,,,,,,,,,,,,,,,,,,,,,,,,
,,,,,,,,,0.010672359,-0.331376734,1,0,0,2.76598,stop_stud,0,11,11,12,1,object symbol,0.014,0.021,0.007,object,symbol,SF,images/object-symbol-sf.png,Sam,AV1IVFVS4VWZP,24,Yes,2020-12-29_14h37.02.544,weird_font_low_1,2020.2.10,Win32,60,,,,,,,,,,,,,,,,,,,,,,,,,,,,,,,,,
,,,,,,,,,0.010672359,-0.331376734,1,0,0,2.482735,stop_stud,0,12,12,2,1,child mother,0.03,0.01,0.02,child,mother,SF,images/child-mother-sf.png,Sam,AV1IVFVS4VWZP,24,Yes,2020-12-29_14h37.02.544,weird_font_low_1,2020.2.10,Win32,60,,,,,,,,,,,,,,,,,,,,,,,,,,,,,,,,,
,,,,,,,,,0.010672359,-0.331376734,1,0,0,3.149335,stop_stud,0,13,13,0,1,angle corner,0.02,0.029,0.009,angle,corner,SF,images/angle-corner-sf.png,Sam,AV1IVFVS4VWZP,24,Yes,2020-12-29_14h37.02.544,weird_font_low_1,2020.2.10,Win32,60,,,,,,,,,,,,,,,,,,,,,,,,,,,,,,,,,
,,,,,,,,,0.010672359,-0.331376734,1,0,0,1.59887,stop_stud,0,14,14,11,1,novel story,0.034,0.034,0,novel,story,flu,images/novel-story-arial1.png,Sam,AV1IVFVS4VWZP,24,Yes,2020-12-29_14h37.02.544,weird_font_low_1,2020.2.10,Win32,60,,,,,,,,,,,,,,,,,,,,,,,,,,,,,,,,,
,,,,,,,,,0.010672359,-0.331376734,1,0,0,0.9661,stop_stud,0,15,15,20,1,stick branch,0.067,0.047,0.02,stick,branch,SF,images/stick-branch-sf.png,Sam,AV1IVFVS4VWZP,24,Yes,2020-12-29_14h37.02.544,weird_font_low_1,2020.2.10,Win32,60,,,,,,,,,,,,,,,,,,,,,,,,,,,,,,,,,
,,,,,,,,,0.010672359,-0.331376734,1,0,0,0.932685,stop_stud,0,16,16,21,1,taste touch,0.016,0.012,0.004,taste,touch,SF,images/taste-touch-sf.png,Sam,AV1IVFVS4VWZP,24,Yes,2020-12-29_14h37.02.544,weird_font_low_1,2020.2.10,Win32,60,,,,,,,,,,,,,,,,,,,,,,,,,,,,,,,,,
,,,,,,,,,0.010672359,-0.331376734,1,0,0,1.04944,stop_stud,0,17,17,3,1,college student ,0.035,0.046,0.011,college,student,flu,images/college - student-arial1.png,Sam,AV1IVFVS4VWZP,24,Yes,2020-12-29_14h37.02.544,weird_font_low_1,2020.2.10,Win32,60,,,,,,,,,,,,,,,,,,,,,,,,,,,,,,,,,
,,,,,,,,,0.010672359,-0.331376734,1,0,0,1.065955,stop_stud,0,18,18,7,1,group meeting,0.027,0.041,0.014,group,meeting,SF,images/group-meeting-sf.png,Sam,AV1IVFVS4VWZP,24,Yes,2020-12-29_14h37.02.544,weird_font_low_1,2020.2.10,Win32,60,,,,,,,,,,,,,,,,,,,,,,,,,,,,,,,,,
,,,,,,,,,0.010672359,-0.331376734,1,0,0,0.93273,stop_stud,0,19,19,16,1,quarter dollar,0.061,0.027,0.034,quarter,dollar,flu,images/quarter-dollar-arial1.png,Sam,AV1IVFVS4VWZP,24,Yes,2020-12-29_14h37.02.544,weird_font_low_1,2020.2.10,Win32,60,,,,,,,,,,,,,,,,,,,,,,,,,,,,,,,,,
,,,,,,,,,0.010672359,-0.331376734,1,0,0,0.949305,stop_stud,0,20,20,17,1,range rifle,0.015,0.028,0.013,range,rifle,flu,images/range-rifle-arial1.png,Sam,AV1IVFVS4VWZP,24,Yes,2020-12-29_14h37.02.544,weird_font_low_1,2020.2.10,Win32,60,,,,,,,,,,,,,,,,,,,,,,,,,,,,,,,,,
,,,,,,,,,0.010672359,-0.331376734,1,0,0,1.932655,stop_stud,0,21,21,14,1,paint picture,0.036,0.031,0.005,paint,picture,flu,images/paint-picture-arial1.png,Sam,AV1IVFVS4VWZP,24,Yes,2020-12-29_14h37.02.544,weird_font_low_1,2020.2.10,Win32,60,,,,,,,,,,,,,,,,,,,,,,,,,,,,,,,,,
,,,,,,,,,0.010672359,-0.331376734,1,0,0,1.08285,stop_stud,0,22,22,23,1,train plane,0.051,0.049,0.002,train,plane,flu,images/train-plane-arial1.png,Sam,AV1IVFVS4VWZP,24,Yes,2020-12-29_14h37.02.544,weird_font_low_1,2020.2.10,Win32,60,,,,,,,,,,,,,,,,,,,,,,,,,,,,,,,,,
,,,,,,,,,0.010672359,-0.330309498,1,0,0,1.73257,stop_stud,0,23,23,15,1,people world,0.014,0.03,0.016,people,world,SF,images/people-world-sf.png,Sam,AV1IVFVS4VWZP,24,Yes,2020-12-29_14h37.02.544,weird_font_low_1,2020.2.10,Win32,60,,,,,,,,,,,,,,,,,,,,,,,,,,,,,,,,,
,,,,,,,,,,,,,,,,,,,,,paint picture,0.036,0.031,0.005,paint,picture,flu,images/paint-picture-arial1.png,Sam,AV1IVFVS4VWZP,24,Yes,2020-12-29_14h37.02.544,weird_font_low_1,2020.2.10,Win32,60,51.06723586,0.16383,39.43436499,11.18954,-0.004268943,-0.426360726,1,0,0,13.131675,polygon,,0.006403415,-0.307897545,1,0,0,6.033345,polygon_2,1,paint,0,0,0,14,1,,,,,,,
,,,,,,,,,,,,,,,,,,,,,taste touch,0.016,0.012,0.004,taste,touch,SF,images/taste-touch-sf.png,Sam,AV1IVFVS4VWZP,24,Yes,2020-12-29_14h37.02.544,weird_font_low_1,2020.2.10,Win32,60,,,,,,,,,,,,,0.006403415,-0.307897545,1,0,0,6.362875,polygon_2,1,taste,0,1,1,21,1,,,,,,,
,,,,,,,,,,,,,,,,,,,,,quarter dollar,0.061,0.027,0.034,quarter,dollar,flu,images/quarter-dollar-arial1.png,Sam,AV1IVFVS4VWZP,24,Yes,2020-12-29_14h37.02.544,weird_font_low_1,2020.2.10,Win32,60,,,,,,,,,,,,,0.006403415,-0.307897545,1,0,0,3.01404,polygon_2,1,quarter,0,2,2,16,1,,,,,,,
,,,,,,,,,,,,,,,,,,,,,train plane,0.051,0.049,0.002,train,plane,flu,images/train-plane-arial1.png,Sam,AV1IVFVS4VWZP,24,Yes,2020-12-29_14h37.02.544,weird_font_low_1,2020.2.10,Win32,60,,,,,,,,,,,,,0.006403415,-0.307897545,1,0,0,2.547845,polygon_2,1,train,0,3,3,23,1,,,,,,,
,,,,,,,,,,,,,,,,,,,,,novel story,0.034,0.034,0,novel,story,flu,images/novel-story-arial1.png,Sam,AV1IVFVS4VWZP,24,Yes,2020-12-29_14h37.02.544,weird_font_low_1,2020.2.10,Win32,60,,,,,,,,,,,,,0.006403415,-0.307897545,1,0,0,2.49788,polygon_2,1,novel,0,4,4,11,1,,,,,,,
,,,,,,,,,,,,,,,,,,,,,native foreign,0.056,0.031,0.025,native,foreign,SF,images/native-foreign-sf.png,Sam,AV1IVFVS4VWZP,24,Yes,2020-12-29_14h37.02.544,weird_font_low_1,2020.2.10,Win32,60,,,,,,,,,,,,foreign,-0.054429029,-0.008004269,1,0,0,3.76575,polygon_2,1,native,0,5,5,10,1,,,,,,,
,,,,,,,,,,,,,,,,,,,,,group meeting,0.027,0.041,0.014,group,meeting,SF,images/group-meeting-sf.png,Sam,AV1IVFVS4VWZP,24,Yes,2020-12-29_14h37.02.544,weird_font_low_1,2020.2.10,Win32,60,,,,,,,,,,,,meeting,-0.073639274,-0.000533618,1,0,0,1.18044,polygon_2,1,group,0,6,6,7,1,,,,,,,
,,,,,,,,,,,,,,,,,,,,,engine machine,0.033,0.027,0.006,engine,machine,flu,images/engine-machine-arial1.png,Sam,AV1IVFVS4VWZP,24,Yes,2020-12-29_14h37.02.544,weird_font_low_1,2020.2.10,Win32,60,,,,,,,,,,,,machine,-0.045891142,-0.014407684,1,0,0,1.31382,polygon_2,1,engine,0,7,7,5,1,,,,,,,
,,,,,,,,,,,,,,,,,,,,,curve shape,0.018,0.011,0.007,curve,shape,flu,images/curve-shape-arial1.png,Sam,AV1IVFVS4VWZP,24,Yes,2020-12-29_14h37.02.544,weird_font_low_1,2020.2.10,Win32,60,,,,,,,,,,,,,-0.023479189,-0.008004269,1,0,0,1.21391,polygon_2,1,curve,0,8,8,4,1,,,,,,,
,,,,,,,,,,,,,,,,,,,,,report weather,0.015,0.024,0.009,report,weather,flu,images/report-weather-arial1.png,Sam,AV1IVFVS4VWZP,24,Yes,2020-12-29_14h37.02.544,weird_font_low_1,2020.2.10,Win32,60,,,,,,,,,,,,,0.001067236,-0.321771612,1,0,0,2.01368,polygon_2,1,report,0,9,9,18,1,,,,,,,
,,,,,,,,,,,,,,,,,,,,,college student ,0.035,0.046,0.011,college,student,flu,images/college - student-arial1.png,Sam,AV1IVFVS4VWZP,24,Yes,2020-12-29_14h37.02.544,weird_font_low_1,2020.2.10,Win32,60,,,,,,,,,,,,,0,-0.310032017,1,0,0,3.51474,polygon_2,1,college,0,10,10,3,1,,,,,,,
,,,,,,,,,,,,,,,,,,,,,stick branch,0.067,0.047,0.02,stick,branch,SF,images/stick-branch-sf.png,Sam,AV1IVFVS4VWZP,24,Yes,2020-12-29_14h37.02.544,weird_font_low_1,2020.2.10,Win32,60,,,,,,,,,,,,,0,-0.310032017,1,0,0,2.580765,polygon_2,1,stick,0,11,11,20,1,,,,,,,
,,,,,,,,,,,,,,,,,,,,,range rifle,0.015,0.028,0.013,range,rifle,flu,images/range-rifle-arial1.png,Sam,AV1IVFVS4VWZP,24,Yes,2020-12-29_14h37.02.544,weird_font_low_1,2020.2.10,Win32,60,,,,,,,,,,,,rifle,0.005336179,-0.017609392,1,0,0,1.480735,polygon_2,1,range,0,12,12,17,1,,,,,,,
,,,,,,,,,,,,,,,,,,,,,throat voice,0.039,0.02,0.019,throat ,voice ,SF,images/throat-voice-sf.png,Sam,AV1IVFVS4VWZP,24,Yes,2020-12-29_14h37.02.544,weird_font_low_1,2020.2.10,Win32,60,,,,,,,,,,,,,0.006403415,-0.298292423,1,0,0,1.64703,polygon_2,1,throat ,0,13,13,22,1,,,,,,,
,,,,,,,,,,,,,,,,,,,,,people world,0.014,0.03,0.016,people,world,SF,images/people-world-sf.png,Sam,AV1IVFVS4VWZP,24,Yes,2020-12-29_14h37.02.544,weird_font_low_1,2020.2.10,Win32,60,,,,,,,,,,,,,0.006403415,-0.298292423,1,0,0,1.447285,polygon_2,1,people,0,14,14,15,1,,,,,,,
,,,,,,,,,,,,,,,,,,,,,block street,0.04,0.019,0.021,block,street,SF,images/block-street-sf.png,Sam,AV1IVFVS4VWZP,24,Yes,2020-12-29_14h37.02.544,weird_font_low_1,2020.2.10,Win32,60,,,,,,,,,,,,,0.006403415,-0.298292423,1,0,0,1.764625,polygon_2,1,block,0,15,15,1,1,,,,,,,
,,,,,,,,,,,,,,,,,,,,,object symbol,0.014,0.021,0.007,object,symbol,SF,images/object-symbol-sf.png,Sam,AV1IVFVS4VWZP,24,Yes,2020-12-29_14h37.02.544,weird_font_low_1,2020.2.10,Win32,60,,,,,,,,,,,,,0.006403415,-0.298292423,1,0,0,2.78119,polygon_2,1,object,0,16,16,12,1,,,,,,,
,,,,,,,,,,,,,,,,,,,,,nation state,0.042,0.055,0.013,nation,state,flu,images/nation-state-arial1.png,Sam,AV1IVFVS4VWZP,24,Yes,2020-12-29_14h37.02.544,weird_font_low_1,2020.2.10,Win32,60,,,,,,,,,,,,state,-0.052294557,0.00266809,1,0,0,1.11438,polygon_2,1,nation,0,17,17,9,1,,,,,,,
,,,,,,,,,,,,,,,,,,,,,child mother,0.03,0.01,0.02,child,mother,SF,images/child-mother-sf.png,Sam,AV1IVFVS4VWZP,24,Yes,2020-12-29_14h37.02.544,weird_font_low_1,2020.2.10,Win32,60,,,,,,,,,,,,mother,-0.023479189,-0.009071505,1,0,0,0.914075,polygon_2,1,child,0,18,18,2,1,,,,,,,
,,,,,,,,,,,,,,,,,,,,,office doctor,0.014,0.01,0.004,office,doctor ,flu,images/office-doctor-arial1.png,Sam,AV1IVFVS4VWZP,24,Yes,2020-12-29_14h37.02.544,weird_font_low_1,2020.2.10,Win32,60,,,,,,,,,,,,,0.005336179,-0.308964781,1,0,0,2.597145,polygon_2,1,office,0,19,19,13,1,,,,,,,
,,,,,,,,,,,,,,,,,,,,,lunch supper,0.019,0.028,0.009,lunch,supper,flu,images/lunch-supper-arial1.png,Sam,AV1IVFVS4VWZP,24,Yes,2020-12-29_14h37.02.544,weird_font_low_1,2020.2.10,Win32,60,,,,,,,,,,,,supper,0,-0.011205977,1,0,0,1.88144,polygon_2,1,lunch,0,20,20,8,1,,,,,,,
,,,,,,,,,,,,,,,,,,,,,sheet cover,0.021,0.053,0.032,sheet,cover,SF,images/sheet-cover-sf.png,Sam,AV1IVFVS4VWZP,24,Yes,2020-12-29_14h37.02.544,weird_font_low_1,2020.2.10,Win32,60,,,,,,,,,,,,,0.004268943,-0.300426894,1,0,0,0.780325,polygon_2,1,sheet,0,21,21,19,1,,,,,,,
,,,,,,,,,,,,,,,,,,,,,angle corner,0.02,0.029,0.009,angle,corner,SF,images/angle-corner-sf.png,Sam,AV1IVFVS4VWZP,24,Yes,2020-12-29_14h37.02.544,weird_font_low_1,2020.2.10,Win32,60,,,,,,,,,,,,,0.004268943,-0.300426894,1,0,0,1.064585,polygon_2,1,angle,0,22,22,0,1,,,,,,,
,,,,,,,,,,,,,,,,,,,,,factory product,0.02,0.028,0.008,factory,product,SF,images/factory-product-sf.png,Sam,AV1IVFVS4VWZP,24,Yes,2020-12-29_14h37.02.544,weird_font_low_1,2020.2.10,Win32,60,,,,,,,,,,,,,0,-0.298292423,1,0,0,6.547905,polygon_2,1,factory,0,23,23,6,1,,,,,,,
,,,,,,,,,,,,,,,,,,,,,,,,,,,,,Sam,AV1IVFVS4VWZP,24,Yes,2020-12-29_14h37.02.544,weird_font_low_1,2020.2.10,Win32,60,,,,,,,,,,,,,,,,,,,,,,,,,,,0.262540021,-0.068836713,1,0,0,1.63217,end_polygon
