key_resp.keys,key_resp.rt,mouse.x,mouse.y,mouse.leftButton,mouse.midButton,mouse.rightButton,mouse.time,mouse.clicked_name,mouse_4.x,mouse_4.y,mouse_4.leftButton,mouse_4.midButton,mouse_4.rightButton,mouse_4.time,mouse_4.clicked_name,cb.thisRepN,cb.thisTrialN,cb.thisN,cb.thisIndex,cb.ran,Forward,Backward,AbsoluteValue,cue1,targ1,font,images,participant,date,expName,psychopyVersion,OS,frameRate,study_id,session,atypic_slider.response,atypic_slider.rt,normal_slider.response,normal_slider.rt,mouse_3.x,mouse_3.y,mouse_3.leftButton,mouse_3.midButton,mouse_3.rightButton,mouse_3.time,mouse_3.clicked_name,textbox.text,mouse_5.x,mouse_5.y,mouse_5.leftButton,mouse_5.midButton,mouse_5.rightButton,mouse_5.time,mouse_5.clicked_name,correctAns,textbox_response,test.thisRepN,test.thisTrialN,test.thisN,test.thisIndex,test.ran,mouse_2.x,mouse_2.y,mouse_2.leftButton,mouse_2.midButton,mouse_2.rightButton,mouse_2.time,mouse_2.clicked_name
y,32.96197,-0.004210511,-0.291052643,1,0,0,13.209735,cont1,-0.008420973,-0.311052644,1,0,0,2.74639,stop_stud,0,0,0,14,1,0.036,0.031,0.005,paint,picture,SF,images/paint-picture-sf.png,5e2b31856d1e38180da77784,2020-12-28_14h36.00.095,weird_font_low_1,2020.2.10,Win32,60,5fea28a6520dd1a07b452e31,5fea3383b0feb8a259240a7f,,,,,,,,,,,,,,,,,,,,,,,,,,,,,,,,,
,,,,,,,,,-0.008420973,-0.311052644,1,0,0,1.096245,stop_stud,0,1,1,3,1,0.035,0.046,0.011,college,student,SF,images/college-student-sf.png,5e2b31856d1e38180da77784,2020-12-28_14h36.00.095,weird_font_low_1,2020.2.10,Win32,60,5fea28a6520dd1a07b452e31,5fea3383b0feb8a259240a7f,,,,,,,,,,,,,,,,,,,,,,,,,,,,,,,,,
,,,,,,,,,-0.008420973,-0.311052644,1,0,0,0.947345,stop_stud,0,2,2,10,1,0.056,0.031,0.025,native,foreign,flu,images/native-foreign-arial1.png,5e2b31856d1e38180da77784,2020-12-28_14h36.00.095,weird_font_low_1,2020.2.10,Win32,60,5fea28a6520dd1a07b452e31,5fea3383b0feb8a259240a7f,,,,,,,,,,,,,,,,,,,,,,,,,,,,,,,,,
,,,,,,,,,-0.008420973,-0.311052644,1,0,0,1.38166,stop_stud,0,3,3,12,1,0.014,0.021,0.007,object,symbol,flu,images/object-symbol-arial1.png,5e2b31856d1e38180da77784,2020-12-28_14h36.00.095,weird_font_low_1,2020.2.10,Win32,60,5fea28a6520dd1a07b452e31,5fea3383b0feb8a259240a7f,,,,,,,,,,,,,,,,,,,,,,,,,,,,,,,,,
,,,,,,,,,-0.008420973,-0.311052644,1,0,0,0.681105,stop_stud,0,4,4,2,1,0.03,0.01,0.02,child,mother,flu,images/child-mother-arial1.png,5e2b31856d1e38180da77784,2020-12-28_14h36.00.095,weird_font_low_1,2020.2.10,Win32,60,5fea28a6520dd1a07b452e31,5fea3383b0feb8a259240a7f,,,,,,,,,,,,,,,,,,,,,,,,,,,,,,,,,
,,,,,,,,,-0.008420973,-0.311052644,1,0,0,1.21531,stop_stud,0,5,5,0,1,0.02,0.029,0.009,angle,corner,flu,images/angle-corner-arial1.png,5e2b31856d1e38180da77784,2020-12-28_14h36.00.095,weird_font_low_1,2020.2.10,Win32,60,5fea28a6520dd1a07b452e31,5fea3383b0feb8a259240a7f,,,,,,,,,,,,,,,,,,,,,,,,,,,,,,,,,
,,,,,,,,,-0.008420973,-0.311052644,1,0,0,0.780605,stop_stud,0,6,6,20,1,0.067,0.047,0.02,stick,branch,flu,images/stick-branch-arial1.png,5e2b31856d1e38180da77784,2020-12-28_14h36.00.095,weird_font_low_1,2020.2.10,Win32,60,5fea28a6520dd1a07b452e31,5fea3383b0feb8a259240a7f,,,,,,,,,,,,,,,,,,,,,,,,,,,,,,,,,
,,,,,,,,,-0.008420973,-0.311052644,1,0,0,1.06552,stop_stud,0,7,7,9,1,0.042,0.055,0.013,nation,state,SF,images/nation-state-sf.png,5e2b31856d1e38180da77784,2020-12-28_14h36.00.095,weird_font_low_1,2020.2.10,Win32,60,5fea28a6520dd1a07b452e31,5fea3383b0feb8a259240a7f,,,,,,,,,,,,,,,,,,,,,,,,,,,,,,,,,
,,,,,,,,,-0.008420973,-0.311052644,1,0,0,0.947,stop_stud,0,8,8,19,1,0.021,0.053,0.032,sheet,cover,flu,images/sheet-cover-arial1.png,5e2b31856d1e38180da77784,2020-12-28_14h36.00.095,weird_font_low_1,2020.2.10,Win32,60,5fea28a6520dd1a07b452e31,5fea3383b0feb8a259240a7f,,,,,,,,,,,,,,,,,,,,,,,,,,,,,,,,,
,,,,,,,,,-0.008420973,-0.311052644,1,0,0,0.71409,stop_stud,0,9,9,22,1,0.039,0.02,0.019,throat ,voice ,flu,images/throat-voice-arial1.png,5e2b31856d1e38180da77784,2020-12-28_14h36.00.095,weird_font_low_1,2020.2.10,Win32,60,5fea28a6520dd1a07b452e31,5fea3383b0feb8a259240a7f,,,,,,,,,,,,,,,,,,,,,,,,,,,,,,,,,
,,,,,,,,,-0.008420973,-0.311052644,1,0,0,0.914075,stop_stud,0,10,10,5,1,0.033,0.027,0.006,engine,machine,SF,images/engine-machine-sf.png,5e2b31856d1e38180da77784,2020-12-28_14h36.00.095,weird_font_low_1,2020.2.10,Win32,60,5fea28a6520dd1a07b452e31,5fea3383b0feb8a259240a7f,,,,,,,,,,,,,,,,,,,,,,,,,,,,,,,,,
,,,,,,,,,-0.007368406,-0.310000076,1,0,0,0.782925,stop_stud,0,11,11,4,1,0.018,0.011,0.007,curve,shape,SF,images/curve-shape-sf.png,5e2b31856d1e38180da77784,2020-12-28_14h36.00.095,weird_font_low_1,2020.2.10,Win32,60,5fea28a6520dd1a07b452e31,5fea3383b0feb8a259240a7f,,,,,,,,,,,,,,,,,,,,,,,,,,,,,,,,,
,,,,,,,,,-0.007368406,-0.310000076,1,0,0,0.64651,stop_stud,0,12,12,21,1,0.016,0.012,0.004,taste,touch,flu,images/taste-touch-arial1.png,5e2b31856d1e38180da77784,2020-12-28_14h36.00.095,weird_font_low_1,2020.2.10,Win32,60,5fea28a6520dd1a07b452e31,5fea3383b0feb8a259240a7f,,,,,,,,,,,,,,,,,,,,,,,,,,,,,,,,,
,,,,,,,,,-0.007368406,-0.310000076,1,0,0,1.014665,stop_stud,0,13,13,16,1,0.061,0.027,0.034,quarter,dollar,SF,images/quarter-dollar-sf.png,5e2b31856d1e38180da77784,2020-12-28_14h36.00.095,weird_font_low_1,2020.2.10,Win32,60,5fea28a6520dd1a07b452e31,5fea3383b0feb8a259240a7f,,,,,,,,,,,,,,,,,,,,,,,,,,,,,,,,,
,,,,,,,,,-0.007368406,-0.310000076,1,0,0,0.89763,stop_stud,0,14,14,8,1,0.019,0.028,0.009,lunch,supper,SF,images/lunch-supper-sf.png,5e2b31856d1e38180da77784,2020-12-28_14h36.00.095,weird_font_low_1,2020.2.10,Win32,60,5fea28a6520dd1a07b452e31,5fea3383b0feb8a259240a7f,,,,,,,,,,,,,,,,,,,,,,,,,,,,,,,,,
,,,,,,,,,-0.007368406,-0.310000076,1,0,0,0.798825,stop_stud,0,15,15,15,1,0.014,0.03,0.016,people,world,flu,images/people -world-arial1.png,5e2b31856d1e38180da77784,2020-12-28_14h36.00.095,weird_font_low_1,2020.2.10,Win32,60,5fea28a6520dd1a07b452e31,5fea3383b0feb8a259240a7f,,,,,,,,,,,,,,,,,,,,,,,,,,,,,,,,,
,,,,,,,,,-0.007368406,-0.310000076,1,0,0,1.19716,stop_stud,0,16,16,11,1,0.034,0.034,0,novel,story,SF,images/novel-story-sf.png,5e2b31856d1e38180da77784,2020-12-28_14h36.00.095,weird_font_low_1,2020.2.10,Win32,60,5fea28a6520dd1a07b452e31,5fea3383b0feb8a259240a7f,,,,,,,,,,,,,,,,,,,,,,,,,,,,,,,,,
,,,,,,,,,-0.007368406,-0.310000076,1,0,0,0.78062,stop_stud,0,17,17,1,1,0.04,0.019,0.021,block,street,flu,images/block-street-arial1.png,5e2b31856d1e38180da77784,2020-12-28_14h36.00.095,weird_font_low_1,2020.2.10,Win32,60,5fea28a6520dd1a07b452e31,5fea3383b0feb8a259240a7f,,,,,,,,,,,,,,,,,,,,,,,,,,,,,,,,,
,,,,,,,,,-0.007368406,-0.310000076,1,0,0,1.01391,stop_stud,0,18,18,13,1,0.014,0.01,0.004,office,doctor ,SF,images/office-doctor-sf.png,5e2b31856d1e38180da77784,2020-12-28_14h36.00.095,weird_font_low_1,2020.2.10,Win32,60,5fea28a6520dd1a07b452e31,5fea3383b0feb8a259240a7f,,,,,,,,,,,,,,,,,,,,,,,,,,,,,,,,,
,,,,,,,,,-0.007368406,-0.310000076,1,0,0,1.19804,stop_stud,0,19,19,6,1,0.02,0.028,0.008,factory,product,flu,images/factory-product-arial1.png,5e2b31856d1e38180da77784,2020-12-28_14h36.00.095,weird_font_low_1,2020.2.10,Win32,60,5fea28a6520dd1a07b452e31,5fea3383b0feb8a259240a7f,,,,,,,,,,,,,,,,,,,,,,,,,,,,,,,,,
,,,,,,,,,-0.007368406,-0.310000076,1,0,0,0.98111,stop_stud,0,20,20,7,1,0.027,0.041,0.014,group,meeting,flu,images/group-meeting-arial1.png,5e2b31856d1e38180da77784,2020-12-28_14h36.00.095,weird_font_low_1,2020.2.10,Win32,60,5fea28a6520dd1a07b452e31,5fea3383b0feb8a259240a7f,,,,,,,,,,,,,,,,,,,,,,,,,,,,,,,,,
,,,,,,,,,-0.007368406,-0.310000076,1,0,0,0.9471,stop_stud,0,21,21,18,1,0.015,0.024,0.009,report,weather,SF,images/report-weather-sf.png,5e2b31856d1e38180da77784,2020-12-28_14h36.00.095,weird_font_low_1,2020.2.10,Win32,60,5fea28a6520dd1a07b452e31,5fea3383b0feb8a259240a7f,,,,,,,,,,,,,,,,,,,,,,,,,,,,,,,,,
,,,,,,,,,-0.007368406,-0.310000076,1,0,0,1.331105,stop_stud,0,22,22,23,1,0.051,0.049,0.002,train,plane,SF,images/train-plane-sf.png,5e2b31856d1e38180da77784,2020-12-28_14h36.00.095,weird_font_low_1,2020.2.10,Win32,60,5fea28a6520dd1a07b452e31,5fea3383b0feb8a259240a7f,,,,,,,,,,,,,,,,,,,,,,,,,,,,,,,,,
,,,,,,,,,-0.007368406,-0.310000076,1,0,0,1.54717,stop_stud,0,23,23,17,1,0.015,0.028,0.013,range,rifle,SF,images/range-rifle-sf.png,5e2b31856d1e38180da77784,2020-12-28_14h36.00.095,weird_font_low_1,2020.2.10,Win32,60,5fea28a6520dd1a07b452e31,5fea3383b0feb8a259240a7f,,,,,,,,,,,,,,,,,,,,,,,,,,,,,,,,,
,,,,,,,,,,,,,,,,,,,,,0.015,0.024,0.009,report,weather,SF,images/report-weather-sf.png,5e2b31856d1e38180da77784,2020-12-28_14h36.00.095,weird_font_low_1,2020.2.10,Win32,60,5fea28a6520dd1a07b452e31,5fea3383b0feb8a259240a7f,49.26316111,0.120065,68.63158377,5.370785,0.001052647,-0.422631593,1,0,0,5.827695,polygon,file,-0.02315788,-0.01842106,1,0,0,1.272615,polygon_2,1,report,0,0,0,18,1,,,,,,,
,,,,,,,,,,,,,,,,,,,,,0.014,0.01,0.004,office,doctor ,SF,images/office-doctor-sf.png,5e2b31856d1e38180da77784,2020-12-28_14h36.00.095,weird_font_low_1,2020.2.10,Win32,60,5fea28a6520dd1a07b452e31,5fea3383b0feb8a259240a7f,,,,,,,,,,,,desk,-0.068421039,0.02263154,1,0,0,1.3059,polygon_2,1,office,0,1,1,13,1,,,,,,,
,,,,,,,,,,,,,,,,,,,,,0.027,0.041,0.014,group,meeting,flu,images/group-meeting-arial1.png,5e2b31856d1e38180da77784,2020-12-28_14h36.00.095,weird_font_low_1,2020.2.10,Win32,60,5fea28a6520dd1a07b452e31,5fea3383b0feb8a259240a7f,,,,,,,,,,,,meeting,-0.181052619,-0.019473724,1,0,0,1.17686,polygon_2,1,group,0,2,2,7,1,,,,,,,
,,,,,,,,,,,,,,,,,,,,,0.034,0.034,0,novel,story,SF,images/novel-story-sf.png,5e2b31856d1e38180da77784,2020-12-28_14h36.00.095,weird_font_low_1,2020.2.10,Win32,60,5fea28a6520dd1a07b452e31,5fea3383b0feb8a259240a7f,,,,,,,,,,,,library,-0.158947356,0.000526308,1,0,0,1.093775,polygon_2,1,novel,0,3,3,11,1,,,,,,,
,,,,,,,,,,,,,,,,,,,,,0.016,0.012,0.004,taste,touch,flu,images/taste-touch-arial1.png,5e2b31856d1e38180da77784,2020-12-28_14h36.00.095,weird_font_low_1,2020.2.10,Win32,60,5fea28a6520dd1a07b452e31,5fea3383b0feb8a259240a7f,,,,,,,,,,,,tongue,-0.173684198,-0.014210566,1,0,0,1.143545,polygon_2,1,taste,0,4,4,21,1,,,,,,,
,,,,,,,,,,,,,,,,,,,,,0.02,0.029,0.009,angle,corner,flu,images/angle-corner-arial1.png,5e2b31856d1e38180da77784,2020-12-28_14h36.00.095,weird_font_low_1,2020.2.10,Win32,60,5fea28a6520dd1a07b452e31,5fea3383b0feb8a259240a7f,,,,,,,,,,,,corner,-0.186315777,-0.023684218,1,0,0,1.092865,polygon_2,1,angle,0,5,5,0,1,,,,,,,
,,,,,,,,,,,,,,,,,,,,,0.021,0.053,0.032,sheet,cover,flu,images/sheet-cover-arial1.png,5e2b31856d1e38180da77784,2020-12-28_14h36.00.095,weird_font_low_1,2020.2.10,Win32,60,5fea28a6520dd1a07b452e31,5fea3383b0feb8a259240a7f,,,,,,,,,,,,bed,-0.226315778,0.001578908,1,0,0,0.82675,polygon_2,1,sheet,0,6,6,19,1,,,,,,,
,,,,,,,,,,,,,,,,,,,,,0.033,0.027,0.006,engine,machine,SF,images/engine-machine-sf.png,5e2b31856d1e38180da77784,2020-12-28_14h36.00.095,weird_font_low_1,2020.2.10,Win32,60,5fea28a6520dd1a07b452e31,5fea3383b0feb8a259240a7f,,,,,,,,,,,,machine,-0.084210513,-0.021578955,1,0,0,0.946585,polygon_2,1,engine,0,7,7,5,1,,,,,,,
,,,,,,,,,,,,,,,,,,,,,0.056,0.031,0.025,native,foreign,flu,images/native-foreign-arial1.png,5e2b31856d1e38180da77784,2020-12-28_14h36.00.095,weird_font_low_1,2020.2.10,Win32,60,5fea28a6520dd1a07b452e31,5fea3383b0feb8a259240a7f,,,,,,,,,,,,language,-0.074736828,-0.025789482,1,0,0,1.17901,polygon_2,1,native,0,8,8,10,1,,,,,,,
,,,,,,,,,,,,,,,,,,,,,0.02,0.028,0.008,factory,product,flu,images/factory-product-arial1.png,5e2b31856d1e38180da77784,2020-12-28_14h36.00.095,weird_font_low_1,2020.2.10,Win32,60,5fea28a6520dd1a07b452e31,5fea3383b0feb8a259240a7f,,,,,,,,,,,,products,-0.175789461,0.006842066,1,0,0,1.09395,polygon_2,1,factory,0,9,9,6,1,,,,,,,
,,,,,,,,,,,,,,,,,,,,,0.019,0.028,0.009,lunch,supper,SF,images/lunch-supper-sf.png,5e2b31856d1e38180da77784,2020-12-28_14h36.00.095,weird_font_low_1,2020.2.10,Win32,60,5fea28a6520dd1a07b452e31,5fea3383b0feb8a259240a7f,,,,,,,,,,,,table,-0.149473671,0.00789473,1,0,0,1.14323,polygon_2,1,lunch,0,10,10,8,1,,,,,,,
,,,,,,,,,,,,,,,,,,,,,0.03,0.01,0.02,child,mother,flu,images/child-mother-arial1.png,5e2b31856d1e38180da77784,2020-12-28_14h36.00.095,weird_font_low_1,2020.2.10,Win32,60,5fea28a6520dd1a07b452e31,5fea3383b0feb8a259240a7f,,,,,,,,,,,,parent,-0.116842092,0.029999993,1,0,0,0.862945,polygon_2,1,child,0,11,11,2,1,,,,,,,
,,,,,,,,,,,,,,,,,,,,,0.051,0.049,0.002,train,plane,SF,images/train-plane-sf.png,5e2b31856d1e38180da77784,2020-12-28_14h36.00.095,weird_font_low_1,2020.2.10,Win32,60,5fea28a6520dd1a07b452e31,5fea3383b0feb8a259240a7f,,,,,,,,,,,,station,-0.149473671,-0.023684218,1,0,0,1.03199,polygon_2,1,train,0,12,12,23,1,,,,,,,
,,,,,,,,,,,,,,,,,,,,,0.061,0.027,0.034,quarter,dollar,SF,images/quarter-dollar-sf.png,5e2b31856d1e38180da77784,2020-12-28_14h36.00.095,weird_font_low_1,2020.2.10,Win32,60,5fea28a6520dd1a07b452e31,5fea3383b0feb8a259240a7f,,,,,,,,,,,,dollar,-0.121052618,-0.006842113,1,0,0,0.79801,polygon_2,1,quarter,0,13,13,16,1,,,,,,,
,,,,,,,,,,,,,,,,,,,,,0.042,0.055,0.013,nation,state,SF,images/nation-state-sf.png,5e2b31856d1e38180da77784,2020-12-28_14h36.00.095,weird_font_low_1,2020.2.10,Win32,60,5fea28a6520dd1a07b452e31,5fea3383b0feb8a259240a7f,,,,,,,,,,,,states,-0.053684196,-0.016315797,1,0,0,1.142225,polygon_2,1,nation,0,14,14,9,1,,,,,,,
,,,,,,,,,,,,,,,,,,,,,0.014,0.021,0.007,object,symbol,flu,images/object-symbol-arial1.png,5e2b31856d1e38180da77784,2020-12-28_14h36.00.095,weird_font_low_1,2020.2.10,Win32,60,5fea28a6520dd1a07b452e31,5fea3383b0feb8a259240a7f,,,,,,,,,,,,thing,-0.037894722,0.006842066,1,0,0,1.06493,polygon_2,1,object,0,15,15,12,1,,,,,,,
,,,,,,,,,,,,,,,,,,,,,0.015,0.028,0.013,range,rifle,SF,images/range-rifle-sf.png,5e2b31856d1e38180da77784,2020-12-28_14h36.00.095,weird_font_low_1,2020.2.10,Win32,60,5fea28a6520dd1a07b452e31,5fea3383b0feb8a259240a7f,,,,,,,,,,,,variety,-0.163157882,0.023684203,1,0,0,1.06478,polygon_2,1,range,0,16,16,17,1,,,,,,,
,,,,,,,,,,,,,,,,,,,,,0.014,0.03,0.016,people,world,flu,images/people -world-arial1.png,5e2b31856d1e38180da77784,2020-12-28_14h36.00.095,weird_font_low_1,2020.2.10,Win32,60,5fea28a6520dd1a07b452e31,5fea3383b0feb8a259240a7f,,,,,,,,,,,,public,-0.134736765,-0.014210566,1,0,0,0.8962,polygon_2,1,people,0,17,17,15,1,,,,,,,
,,,,,,,,,,,,,,,,,,,,,0.039,0.02,0.019,throat ,voice ,flu,images/throat-voice-arial1.png,5e2b31856d1e38180da77784,2020-12-28_14h36.00.095,weird_font_low_1,2020.2.10,Win32,60,5fea28a6520dd1a07b452e31,5fea3383b0feb8a259240a7f,,,,,,,,,,,,mouth,-0.161052555,-0.012105271,1,0,0,1.325785,polygon_2,1,throat ,0,18,18,22,1,,,,,,,
,,,,,,,,,,,,,,,,,,,,,0.04,0.019,0.021,block,street,flu,images/block-street-arial1.png,5e2b31856d1e38180da77784,2020-12-28_14h36.00.095,weird_font_low_1,2020.2.10,Win32,60,5fea28a6520dd1a07b452e31,5fea3383b0feb8a259240a7f,,,,,,,,,,,,city,-0.178947356,-0.019473724,1,0,0,1.02671,polygon_2,1,block,0,19,19,1,1,,,,,,,
,,,,,,,,,,,,,,,,,,,,,0.067,0.047,0.02,stick,branch,flu,images/stick-branch-arial1.png,5e2b31856d1e38180da77784,2020-12-28_14h36.00.095,weird_font_low_1,2020.2.10,Win32,60,5fea28a6520dd1a07b452e31,5fea3383b0feb8a259240a7f,,,,,,,,,,,,branch,-0.175789461,-0.00368425,1,0,0,1.0775,polygon_2,1,stick,0,20,20,20,1,,,,,,,
,,,,,,,,,,,,,,,,,,,,,0.036,0.031,0.005,paint,picture,SF,images/paint-picture-sf.png,5e2b31856d1e38180da77784,2020-12-28_14h36.00.095,weird_font_low_1,2020.2.10,Win32,60,5fea28a6520dd1a07b452e31,5fea3383b0feb8a259240a7f,,,,,,,,,,,,can,-0.10210525,-0.01842106,1,0,0,1.05978,polygon_2,1,paint,0,21,21,14,1,,,,,,,
,,,,,,,,,,,,,,,,,,,,,0.018,0.011,0.007,curve,shape,SF,images/curve-shape-sf.png,5e2b31856d1e38180da77784,2020-12-28_14h36.00.095,weird_font_low_1,2020.2.10,Win32,60,5fea28a6520dd1a07b452e31,5fea3383b0feb8a259240a7f,,,,,,,,,,,,bell,-0.151578935,0.004736835,1,0,0,0.9602,polygon_2,1,curve,0,22,22,4,1,,,,,,,
,,,,,,,,,,,,,,,,,,,,,0.035,0.046,0.011,college,student,SF,images/college-student-sf.png,5e2b31856d1e38180da77784,2020-12-28_14h36.00.095,weird_font_low_1,2020.2.10,Win32,60,5fea28a6520dd1a07b452e31,5fea3383b0feb8a259240a7f,,,,,,,,,,,,exam,-0.086315776,0.012105224,1,0,0,0.8601,polygon_2,1,college,0,23,23,3,1,,,,,,,
,,,,,,,,,,,,,,,,,,,,,,,,,,,,5e2b31856d1e38180da77784,2020-12-28_14h36.00.095,weird_font_low_1,2020.2.10,Win32,60,5fea28a6520dd1a07b452e31,5fea3383b0feb8a259240a7f,,,,,,,,,,,,,,,,,,,,,,,,,,,-0.003157815,-0.315263234,1,0,0,0.842325,end_polygon
