key_resp.keys,key_resp.rt,mouse.x,mouse.y,mouse.leftButton,mouse.midButton,mouse.rightButton,mouse.time,mouse.clicked_name,mouse_4.x,mouse_4.y,mouse_4.leftButton,mouse_4.midButton,mouse_4.rightButton,mouse_4.time,mouse_4.clicked_name,cb.thisRepN,cb.thisTrialN,cb.thisN,cb.thisIndex,cb.ran,Itempairs,Forward,Backward,AbsoluteValue,cue1,targ1,font,images,participant,turkid,AGE,Did you learn English before the age of 4?,date,expName,psychopyVersion,OS,frameRate,atypic_slider.response,atypic_slider.rt,normal_slider.response,normal_slider.rt,mouse_3.x,mouse_3.y,mouse_3.leftButton,mouse_3.midButton,mouse_3.rightButton,mouse_3.time,mouse_3.clicked_name,textbox.text,mouse_5.x,mouse_5.y,mouse_5.leftButton,mouse_5.midButton,mouse_5.rightButton,mouse_5.time,mouse_5.clicked_name,correctAns,textbox_response,test.thisRepN,test.thisTrialN,test.thisN,test.thisIndex,test.ran,mouse_2.x,mouse_2.y,mouse_2.leftButton,mouse_2.midButton,mouse_2.rightButton,mouse_2.time,mouse_2.clicked_name
y,9.08907,0.007173601,-0.300573888,1,0,0,18.30709,cont1,0.00143472,-0.31061693,1,0,0,3.45697,stop_stud,0,0,0,12,1,object symbol,0.014,0.021,0.007,object,symbol,SF,images/object-symbol-sf.png,A2H4LJ4CXZQ304,A2H4LJ4CXZQ304,60,Yes,2020-12-26_19h17.52.200,weird_font_low_2,2020.2.10,Win32,60,,,,,,,,,,,,,,,,,,,,,,,,,,,,,,,,,
,,,,,,,,,-0.00286944,-0.31348637,1,0,0,2.16391,stop_stud,0,1,1,20,1,stick branch,0.067,0.047,0.02,stick,branch,SF,images/stick-branch-sf.png,A2H4LJ4CXZQ304,A2H4LJ4CXZQ304,60,Yes,2020-12-26_19h17.52.200,weird_font_low_2,2020.2.10,Win32,60,,,,,,,,,,,,,,,,,,,,,,,,,,,,,,,,,
,,,,,,,,,-0.00286944,-0.31348637,1,0,0,0.91248,stop_stud,0,2,2,19,1,sheet cover,0.021,0.053,0.032,sheet,cover,SF,images/sheet-cover-sf.png,A2H4LJ4CXZQ304,A2H4LJ4CXZQ304,60,Yes,2020-12-26_19h17.52.200,weird_font_low_2,2020.2.10,Win32,60,,,,,,,,,,,,,,,,,,,,,,,,,,,,,,,,,
,,,,,,,,,-0.00286944,-0.31348637,1,0,0,1.932945,stop_stud,0,3,3,3,1,college student ,0.035,0.046,0.011,college,student,flu,images/college - student-arial1.png,A2H4LJ4CXZQ304,A2H4LJ4CXZQ304,60,Yes,2020-12-26_19h17.52.200,weird_font_low_2,2020.2.10,Win32,60,,,,,,,,,,,,,,,,,,,,,,,,,,,,,,,,,
,,,,,,,,,-0.005738881,-0.31492109,1,0,0,1.632725,stop_stud,0,4,4,2,1,child mother,0.03,0.01,0.02,child,mother,SF,images/child-mother-sf.png,A2H4LJ4CXZQ304,A2H4LJ4CXZQ304,60,Yes,2020-12-26_19h17.52.200,weird_font_low_2,2020.2.10,Win32,60,,,,,,,,,,,,,,,,,,,,,,,,,,,,,,,,,
,,,,,,,,,-0.005738881,-0.31492109,1,0,0,0.67663,stop_stud,0,5,5,23,1,train plane,0.051,0.049,0.002,train,plane,flu,images/train-plane-arial1.png,A2H4LJ4CXZQ304,A2H4LJ4CXZQ304,60,Yes,2020-12-26_19h17.52.200,weird_font_low_2,2020.2.10,Win32,60,,,,,,,,,,,,,,,,,,,,,,,,,,,,,,,,,
,,,,,,,,,-0.005738881,-0.31492109,1,0,0,0.829535,stop_stud,0,6,6,5,1,engine machine,0.033,0.027,0.006,engine,machine,flu,images/engine-machine-arial1.png,A2H4LJ4CXZQ304,A2H4LJ4CXZQ304,60,Yes,2020-12-26_19h17.52.200,weird_font_low_2,2020.2.10,Win32,60,,,,,,,,,,,,,,,,,,,,,,,,,,,,,,,,,
,,,,,,,,,-0.007173601,-0.31492109,1,0,0,1.32821,stop_stud,0,7,7,11,1,novel story,0.034,0.034,0,novel,story,flu,images/novel-story-arial1.png,A2H4LJ4CXZQ304,A2H4LJ4CXZQ304,60,Yes,2020-12-26_19h17.52.200,weird_font_low_2,2020.2.10,Win32,60,,,,,,,,,,,,,,,,,,,,,,,,,,,,,,,,,
,,,,,,,,,-0.008608321,-0.316355811,1,0,0,0.74627,stop_stud,0,8,8,22,1,throat voice,0.039,0.02,0.019,throat ,voice ,SF,images/throat-voice-sf.png,A2H4LJ4CXZQ304,A2H4LJ4CXZQ304,60,Yes,2020-12-26_19h17.52.200,weird_font_low_2,2020.2.10,Win32,60,,,,,,,,,,,,,,,,,,,,,,,,,,,,,,,,,
,,,,,,,,,-0.008608321,-0.316355811,1,0,0,0.729155,stop_stud,0,9,9,8,1,lunch supper,0.019,0.028,0.009,lunch,supper,flu,images/lunch-supper-arial1.png,A2H4LJ4CXZQ304,A2H4LJ4CXZQ304,60,Yes,2020-12-26_19h17.52.200,weird_font_low_2,2020.2.10,Win32,60,,,,,,,,,,,,,,,,,,,,,,,,,,,,,,,,,
,,,,,,,,,-0.008608321,-0.316355811,1,0,0,1.02907,stop_stud,0,10,10,9,1,nation state,0.042,0.055,0.013,nation,state,flu,images/nation-state-arial1.png,A2H4LJ4CXZQ304,A2H4LJ4CXZQ304,60,Yes,2020-12-26_19h17.52.200,weird_font_low_2,2020.2.10,Win32,60,,,,,,,,,,,,,,,,,,,,,,,,,,,,,,,,,
,,,,,,,,,-0.010043042,-0.316355811,1,0,0,0.998805,stop_stud,0,11,11,7,1,group meeting,0.027,0.041,0.014,group,meeting,SF,images/group-meeting-sf.png,A2H4LJ4CXZQ304,A2H4LJ4CXZQ304,60,Yes,2020-12-26_19h17.52.200,weird_font_low_2,2020.2.10,Win32,60,,,,,,,,,,,,,,,,,,,,,,,,,,,,,,,,,
,,,,,,,,,-0.010043042,-0.316355811,1,0,0,0.82926,stop_stud,0,12,12,4,1,curve shape,0.018,0.011,0.007,curve,shape,flu,images/curve-shape-arial1.png,A2H4LJ4CXZQ304,A2H4LJ4CXZQ304,60,Yes,2020-12-26_19h17.52.200,weird_font_low_2,2020.2.10,Win32,60,,,,,,,,,,,,,,,,,,,,,,,,,,,,,,,,,
,,,,,,,,,-0.010043042,-0.316355811,1,0,0,1.71283,stop_stud,0,13,13,10,1,native foreign,0.056,0.031,0.025,native,foreign,SF,images/native-foreign-sf.png,A2H4LJ4CXZQ304,A2H4LJ4CXZQ304,60,Yes,2020-12-26_19h17.52.200,weird_font_low_2,2020.2.10,Win32,60,,,,,,,,,,,,,,,,,,,,,,,,,,,,,,,,,
,,,,,,,,,-0.010043042,-0.316355811,1,0,0,0.76601,stop_stud,0,14,14,21,1,taste touch,0.016,0.012,0.004,taste,touch,SF,images/taste-touch-sf.png,A2H4LJ4CXZQ304,A2H4LJ4CXZQ304,60,Yes,2020-12-26_19h17.52.200,weird_font_low_2,2020.2.10,Win32,60,,,,,,,,,,,,,,,,,,,,,,,,,,,,,,,,,
,,,,,,,,,-0.011477762,-0.316355811,1,0,0,1.77794,stop_stud,0,15,15,17,1,range rifle,0.015,0.028,0.013,range,rifle,flu,images/range-rifle-arial1.png,A2H4LJ4CXZQ304,A2H4LJ4CXZQ304,60,Yes,2020-12-26_19h17.52.200,weird_font_low_2,2020.2.10,Win32,60,,,,,,,,,,,,,,,,,,,,,,,,,,,,,,,,,
,,,,,,,,,-0.011477762,-0.316355811,1,0,0,0.79684,stop_stud,0,16,16,18,1,report weather,0.015,0.024,0.009,report,weather,flu,images/report-weather-arial1.png,A2H4LJ4CXZQ304,A2H4LJ4CXZQ304,60,Yes,2020-12-26_19h17.52.200,weird_font_low_2,2020.2.10,Win32,60,,,,,,,,,,,,,,,,,,,,,,,,,,,,,,,,,
,,,,,,,,,-0.011477762,-0.316355811,1,0,0,0.94653,stop_stud,0,17,17,1,1,block street,0.04,0.019,0.021,block,street,SF,images/block-street-sf.png,A2H4LJ4CXZQ304,A2H4LJ4CXZQ304,60,Yes,2020-12-26_19h17.52.200,weird_font_low_2,2020.2.10,Win32,60,,,,,,,,,,,,,,,,,,,,,,,,,,,,,,,,,
,,,,,,,,,-0.011477762,-0.316355811,1,0,0,0.86217,stop_stud,0,18,18,16,1,quarter dollar,0.061,0.027,0.034,quarter,dollar,flu,images/quarter-dollar-arial1.png,A2H4LJ4CXZQ304,A2H4LJ4CXZQ304,60,Yes,2020-12-26_19h17.52.200,weird_font_low_2,2020.2.10,Win32,60,,,,,,,,,,,,,,,,,,,,,,,,,,,,,,,,,
,,,,,,,,,-0.018651363,-0.31492109,1,0,0,3.19702,stop_stud,0,19,19,15,1,people world,0.014,0.03,0.016,people,world,SF,images/people-world-sf.png,A2H4LJ4CXZQ304,A2H4LJ4CXZQ304,60,Yes,2020-12-26_19h17.52.200,weird_font_low_2,2020.2.10,Win32,60,,,,,,,,,,,,,,,,,,,,,,,,,,,,,,,,,
,,,,,,,,,-0.014347202,-0.296269727,1,0,0,1.979155,stop_stud,0,20,20,0,1,angle corner,0.02,0.029,0.009,angle,corner,SF,images/angle-corner-sf.png,A2H4LJ4CXZQ304,A2H4LJ4CXZQ304,60,Yes,2020-12-26_19h17.52.200,weird_font_low_2,2020.2.10,Win32,60,,,,,,,,,,,,,,,,,,,,,,,,,,,,,,,,,
,,,,,,,,,-0.017216643,-0.293400287,1,0,0,1.700315,stop_stud,0,21,21,14,1,paint picture,0.036,0.031,0.005,paint,picture,flu,images/paint-picture-arial1.png,A2H4LJ4CXZQ304,A2H4LJ4CXZQ304,60,Yes,2020-12-26_19h17.52.200,weird_font_low_2,2020.2.10,Win32,60,,,,,,,,,,,,,,,,,,,,,,,,,,,,,,,,,
,,,,,,,,,-0.018651363,-0.291965567,1,0,0,0.681695,stop_stud,0,22,22,13,1,office doctor,0.014,0.01,0.004,office,doctor ,flu,images/office-doctor-arial1.png,A2H4LJ4CXZQ304,A2H4LJ4CXZQ304,60,Yes,2020-12-26_19h17.52.200,weird_font_low_2,2020.2.10,Win32,60,,,,,,,,,,,,,,,,,,,,,,,,,,,,,,,,,
,,,,,,,,,0.008608321,-0.291965567,1,0,0,1.743725,stop_stud,0,23,23,6,1,factory product,0.02,0.028,0.008,factory,product,SF,images/factory-product-sf.png,A2H4LJ4CXZQ304,A2H4LJ4CXZQ304,60,Yes,2020-12-26_19h17.52.200,weird_font_low_2,2020.2.10,Win32,60,,,,,,,,,,,,,,,,,,,,,,,,,,,,,,,,,
,,,,,,,,,,,,,,,,,,,,,engine machine,0.033,0.027,0.006,engine,machine,flu,images/engine-machine-arial1.png,A2H4LJ4CXZQ304,A2H4LJ4CXZQ304,60,Yes,2020-12-26_19h17.52.200,weird_font_low_2,2020.2.10,Win32,60,50.86083214,0.18917,98.49354376,9.387315,-0.004304161,-0.422525108,1,0,0,6.210805,polygon,,0.014347202,-0.299139168,1,0,0,2.35815,polygon_2,1,engine,0,0,0,5,1,,,,,,,
,,,,,,,,,,,,,,,,,,,,,throat voice,0.039,0.02,0.019,throat ,voice ,SF,images/throat-voice-sf.png,A2H4LJ4CXZQ304,A2H4LJ4CXZQ304,60,Yes,2020-12-26_19h17.52.200,weird_font_low_2,2020.2.10,Win32,60,,,,,,,,,,,,,0.014347202,-0.294835007,1,0,0,1.225705,polygon_2,1,throat ,0,1,1,22,1,,,,,,,
,,,,,,,,,,,,,,,,,,,,,sheet cover,0.021,0.053,0.032,sheet,cover,SF,images/sheet-cover-sf.png,A2H4LJ4CXZQ304,A2H4LJ4CXZQ304,60,Yes,2020-12-26_19h17.52.200,weird_font_low_2,2020.2.10,Win32,60,,,,,,,,,,,,,0.038737446,0.017934003,1,0,0,1.24664,polygon_2,1,sheet,0,2,2,19,1,,,,,,,
,,,,,,,,,,,,,,,,,,,,,native foreign,0.056,0.031,0.025,native,foreign,SF,images/native-foreign-sf.png,A2H4LJ4CXZQ304,A2H4LJ4CXZQ304,60,Yes,2020-12-26_19h17.52.200,weird_font_low_2,2020.2.10,Win32,60,,,,,,,,,,,,,0.007173601,-0.304878049,1,0,0,0.958435,polygon_2,1,native,0,3,3,10,1,,,,,,,
,,,,,,,,,,,,,,,,,,,,,report weather,0.015,0.024,0.009,report,weather,flu,images/report-weather-arial1.png,A2H4LJ4CXZQ304,A2H4LJ4CXZQ304,60,Yes,2020-12-26_19h17.52.200,weird_font_low_2,2020.2.10,Win32,60,,,,,,,,,,,,,0.007173601,-0.302008608,1,0,0,0.695115,polygon_2,1,report,0,4,4,18,1,,,,,,,
,,,,,,,,,,,,,,,,,,,,,nation state,0.042,0.055,0.013,nation,state,flu,images/nation-state-arial1.png,A2H4LJ4CXZQ304,A2H4LJ4CXZQ304,60,Yes,2020-12-26_19h17.52.200,weird_font_low_2,2020.2.10,Win32,60,,,,,,,,,,,,,0.005738881,-0.300573888,1,0,0,0.694025,polygon_2,1,nation,0,5,5,9,1,,,,,,,
,,,,,,,,,,,,,,,,,,,,,quarter dollar,0.061,0.027,0.034,quarter,dollar,flu,images/quarter-dollar-arial1.png,A2H4LJ4CXZQ304,A2H4LJ4CXZQ304,60,Yes,2020-12-26_19h17.52.200,weird_font_low_2,2020.2.10,Win32,60,,,,,,,,,,,,,0.005738881,-0.300573888,1,0,0,0.576985,polygon_2,1,quarter,0,6,6,16,1,,,,,,,
,,,,,,,,,,,,,,,,,,,,,range rifle,0.015,0.028,0.013,range,rifle,flu,images/range-rifle-arial1.png,A2H4LJ4CXZQ304,A2H4LJ4CXZQ304,60,Yes,2020-12-26_19h17.52.200,weird_font_low_2,2020.2.10,Win32,60,,,,,,,,,,,,,0.005738881,-0.300573888,1,0,0,0.527875,polygon_2,1,range,0,7,7,17,1,,,,,,,
,,,,,,,,,,,,,,,,,,,,,novel story,0.034,0.034,0,novel,story,flu,images/novel-story-arial1.png,A2H4LJ4CXZQ304,A2H4LJ4CXZQ304,60,Yes,2020-12-26_19h17.52.200,weird_font_low_2,2020.2.10,Win32,60,,,,,,,,,,,,,0.005738881,-0.300573888,1,0,0,0.727965,polygon_2,1,novel,0,8,8,11,1,,,,,,,
,,,,,,,,,,,,,,,,,,,,,factory product,0.02,0.028,0.008,factory,product,SF,images/factory-product-sf.png,A2H4LJ4CXZQ304,A2H4LJ4CXZQ304,60,Yes,2020-12-26_19h17.52.200,weird_font_low_2,2020.2.10,Win32,60,,,,,,,,,,,,,0.005738881,-0.300573888,1,0,0,0.577455,polygon_2,1,factory,0,9,9,6,1,,,,,,,
,,,,,,,,,,,,,,,,,,,,,block street,0.04,0.019,0.021,block,street,SF,images/block-street-sf.png,A2H4LJ4CXZQ304,A2H4LJ4CXZQ304,60,Yes,2020-12-26_19h17.52.200,weird_font_low_2,2020.2.10,Win32,60,,,,,,,,,,,,,0.005738881,-0.300573888,1,0,0,0.561255,polygon_2,1,block,0,10,10,1,1,,,,,,,
,,,,,,,,,,,,,,,,,,,,,lunch supper,0.019,0.028,0.009,lunch,supper,flu,images/lunch-supper-arial1.png,A2H4LJ4CXZQ304,A2H4LJ4CXZQ304,60,Yes,2020-12-26_19h17.52.200,weird_font_low_2,2020.2.10,Win32,60,,,,,,,,,,,,,0.005738881,-0.300573888,1,0,0,0.527925,polygon_2,1,lunch,0,11,11,8,1,,,,,,,
,,,,,,,,,,,,,,,,,,,,,angle corner,0.02,0.029,0.009,angle,corner,SF,images/angle-corner-sf.png,A2H4LJ4CXZQ304,A2H4LJ4CXZQ304,60,Yes,2020-12-26_19h17.52.200,weird_font_low_2,2020.2.10,Win32,60,,,,,,,,,,,,,0.005738881,-0.300573888,1,0,0,0.51121,polygon_2,1,angle,0,12,12,0,1,,,,,,,
,,,,,,,,,,,,,,,,,,,,,curve shape,0.018,0.011,0.007,curve,shape,flu,images/curve-shape-arial1.png,A2H4LJ4CXZQ304,A2H4LJ4CXZQ304,60,Yes,2020-12-26_19h17.52.200,weird_font_low_2,2020.2.10,Win32,60,,,,,,,,,,,,,0.005738881,-0.300573888,1,0,0,0.493395,polygon_2,1,curve,0,13,13,4,1,,,,,,,
,,,,,,,,,,,,,,,,,,,,,train plane,0.051,0.049,0.002,train,plane,flu,images/train-plane-arial1.png,A2H4LJ4CXZQ304,A2H4LJ4CXZQ304,60,Yes,2020-12-26_19h17.52.200,weird_font_low_2,2020.2.10,Win32,60,,,,,,,,,,,,,0.005738881,-0.300573888,1,0,0,0.44309,polygon_2,1,train,0,14,14,23,1,,,,,,,
,,,,,,,,,,,,,,,,,,,,,object symbol,0.014,0.021,0.007,object,symbol,SF,images/object-symbol-sf.png,A2H4LJ4CXZQ304,A2H4LJ4CXZQ304,60,Yes,2020-12-26_19h17.52.200,weird_font_low_2,2020.2.10,Win32,60,,,,,,,,,,,,,0.005738881,-0.300573888,1,0,0,0.39372,polygon_2,1,object,0,15,15,12,1,,,,,,,
,,,,,,,,,,,,,,,,,,,,,office doctor,0.014,0.01,0.004,office,doctor ,flu,images/office-doctor-arial1.png,A2H4LJ4CXZQ304,A2H4LJ4CXZQ304,60,Yes,2020-12-26_19h17.52.200,weird_font_low_2,2020.2.10,Win32,60,,,,,,,,,,,,,0.005738881,-0.300573888,1,0,0,0.29662,polygon_2,1,office,0,16,16,13,1,,,,,,,
,,,,,,,,,,,,,,,,,,,,,stick branch,0.067,0.047,0.02,stick,branch,SF,images/stick-branch-sf.png,A2H4LJ4CXZQ304,A2H4LJ4CXZQ304,60,Yes,2020-12-26_19h17.52.200,weird_font_low_2,2020.2.10,Win32,60,,,,,,,,,,,,,0.005738881,-0.300573888,1,0,0,0.34281,polygon_2,1,stick,0,17,17,20,1,,,,,,,
,,,,,,,,,,,,,,,,,,,,,paint picture,0.036,0.031,0.005,paint,picture,flu,images/paint-picture-arial1.png,A2H4LJ4CXZQ304,A2H4LJ4CXZQ304,60,Yes,2020-12-26_19h17.52.200,weird_font_low_2,2020.2.10,Win32,60,,,,,,,,,,,,,0.005738881,-0.300573888,1,0,0,0.37834,polygon_2,1,paint,0,18,18,14,1,,,,,,,
,,,,,,,,,,,,,,,,,,,,,child mother,0.03,0.01,0.02,child,mother,SF,images/child-mother-sf.png,A2H4LJ4CXZQ304,A2H4LJ4CXZQ304,60,Yes,2020-12-26_19h17.52.200,weird_font_low_2,2020.2.10,Win32,60,,,,,,,,,,,,,0.005738881,-0.300573888,1,0,0,0.36079,polygon_2,1,child,0,19,19,2,1,,,,,,,
,,,,,,,,,,,,,,,,,,,,,people world,0.014,0.03,0.016,people,world,SF,images/people-world-sf.png,A2H4LJ4CXZQ304,A2H4LJ4CXZQ304,60,Yes,2020-12-26_19h17.52.200,weird_font_low_2,2020.2.10,Win32,60,,,,,,,,,,,,,0.005738881,-0.300573888,1,0,0,0.42784,polygon_2,1,people,0,20,20,15,1,,,,,,,
,,,,,,,,,,,,,,,,,,,,,taste touch,0.016,0.012,0.004,taste,touch,SF,images/taste-touch-sf.png,A2H4LJ4CXZQ304,A2H4LJ4CXZQ304,60,Yes,2020-12-26_19h17.52.200,weird_font_low_2,2020.2.10,Win32,60,,,,,,,,,,,,,0.005738881,-0.300573888,1,0,0,0.410385,polygon_2,1,taste,0,21,21,21,1,,,,,,,
,,,,,,,,,,,,,,,,,,,,,college student ,0.035,0.046,0.011,college,student,flu,images/college - student-arial1.png,A2H4LJ4CXZQ304,A2H4LJ4CXZQ304,60,Yes,2020-12-26_19h17.52.200,weird_font_low_2,2020.2.10,Win32,60,,,,,,,,,,,,,0.005738881,-0.300573888,1,0,0,0.461475,polygon_2,1,college,0,22,22,3,1,,,,,,,
,,,,,,,,,,,,,,,,,,,,,group meeting,0.027,0.041,0.014,group,meeting,SF,images/group-meeting-sf.png,A2H4LJ4CXZQ304,A2H4LJ4CXZQ304,60,Yes,2020-12-26_19h17.52.200,weird_font_low_2,2020.2.10,Win32,60,,,,,,,,,,,,,0.005738881,-0.300573888,1,0,0,0.52604,polygon_2,1,group,0,23,23,7,1,,,,,,,
,,,,,,,,,,,,,,,,,,,,,,,,,,,,,A2H4LJ4CXZQ304,A2H4LJ4CXZQ304,60,Yes,2020-12-26_19h17.52.200,weird_font_low_2,2020.2.10,Win32,60,,,,,,,,,,,,,,,,,,,,,,,,,,,0.360114778,-0.135581062,1,0,0,3.01273,end_polygon
