key_resp.keys,key_resp.rt,mouse.x,mouse.y,mouse.leftButton,mouse.midButton,mouse.rightButton,mouse.time,mouse.clicked_name,mouse_4.x,mouse_4.y,mouse_4.leftButton,mouse_4.midButton,mouse_4.rightButton,mouse_4.time,mouse_4.clicked_name,cb.thisRepN,cb.thisTrialN,cb.thisN,cb.thisIndex,cb.ran,Itempairs,Forward,Backward,AbsoluteValue,cue1,targ1,font,images,participant,turkid,AGE,Did you learn English before the age of 4?,date,expName,psychopyVersion,OS,frameRate,atypic_slider.response,atypic_slider.rt,normal_slider.response,normal_slider.rt,mouse_3.x,mouse_3.y,mouse_3.leftButton,mouse_3.midButton,mouse_3.rightButton,mouse_3.time,mouse_3.clicked_name,textbox.text,mouse_5.x,mouse_5.y,mouse_5.leftButton,mouse_5.midButton,mouse_5.rightButton,mouse_5.time,mouse_5.clicked_name,correctAns,textbox_response,test.thisRepN,test.thisTrialN,test.thisN,test.thisIndex,test.ran,mouse_2.x,mouse_2.y,mouse_2.leftButton,mouse_2.midButton,mouse_2.rightButton,mouse_2.time,mouse_2.clicked_name
y,5.16242,0.004127967,-0.317337461,1,0,0,9.759005,cont1,0.004127967,-0.317337461,1,0,0,1.76409,stop_stud,0,0,0,8,1,lunch supper,0.019,0.028,0.009,lunch,supper,flu,images/lunch-supper-arial1.png,A3PQVDFT21IISU,A3PQVDFT21IISU,30,Yes,2020-12-26_15h48.29.504,weird_font_low_2,2020.2.10,Win32,60,,,,,,,,,,,,,,,,,,,,,,,,,,,,,,,,,
,,,,,,,,,0.005159959,-0.31630547,1,0,0,1.57651,stop_stud,0,1,1,10,1,native foreign,0.056,0.031,0.025,native,foreign,SF,images/native-foreign-sf.png,A3PQVDFT21IISU,A3PQVDFT21IISU,30,Yes,2020-12-26_15h48.29.504,weird_font_low_2,2020.2.10,Win32,60,,,,,,,,,,,,,,,,,,,,,,,,,,,,,,,,,
,,,,,,,,,0.005159959,-0.31630547,1,0,0,1.42867,stop_stud,0,2,2,19,1,sheet cover,0.021,0.053,0.032,sheet,cover,SF,images/sheet-cover-sf.png,A3PQVDFT21IISU,A3PQVDFT21IISU,30,Yes,2020-12-26_15h48.29.504,weird_font_low_2,2020.2.10,Win32,60,,,,,,,,,,,,,,,,,,,,,,,,,,,,,,,,,
,,,,,,,,,0.005159959,-0.31630547,1,0,0,0.953345,stop_stud,0,3,3,9,1,nation state,0.042,0.055,0.013,nation,state,flu,images/nation-state-arial1.png,A3PQVDFT21IISU,A3PQVDFT21IISU,30,Yes,2020-12-26_15h48.29.504,weird_font_low_2,2020.2.10,Win32,60,,,,,,,,,,,,,,,,,,,,,,,,,,,,,,,,,
,,,,,,,,,0.005159959,-0.31630547,1,0,0,1.17282,stop_stud,0,4,4,5,1,engine machine,0.033,0.027,0.006,engine,machine,flu,images/engine-machine-arial1.png,A3PQVDFT21IISU,A3PQVDFT21IISU,30,Yes,2020-12-26_15h48.29.504,weird_font_low_2,2020.2.10,Win32,60,,,,,,,,,,,,,,,,,,,,,,,,,,,,,,,,,
,,,,,,,,,0.005159959,-0.31630547,1,0,0,1.096835,stop_stud,0,5,5,4,1,curve shape,0.018,0.011,0.007,curve,shape,flu,images/curve-shape-arial1.png,A3PQVDFT21IISU,A3PQVDFT21IISU,30,Yes,2020-12-26_15h48.29.504,weird_font_low_2,2020.2.10,Win32,60,,,,,,,,,,,,,,,,,,,,,,,,,,,,,,,,,
,,,,,,,,,0.005159959,-0.31630547,1,0,0,1.110665,stop_stud,0,6,6,16,1,quarter dollar,0.061,0.027,0.034,quarter,dollar,flu,images/quarter-dollar-arial1.png,A3PQVDFT21IISU,A3PQVDFT21IISU,30,Yes,2020-12-26_15h48.29.504,weird_font_low_2,2020.2.10,Win32,60,,,,,,,,,,,,,,,,,,,,,,,,,,,,,,,,,
,,,,,,,,,0.005159959,-0.31630547,1,0,0,1.23041,stop_stud,0,7,7,6,1,factory product,0.02,0.028,0.008,factory,product,SF,images/factory-product-sf.png,A3PQVDFT21IISU,A3PQVDFT21IISU,30,Yes,2020-12-26_15h48.29.504,weird_font_low_2,2020.2.10,Win32,60,,,,,,,,,,,,,,,,,,,,,,,,,,,,,,,,,
,,,,,,,,,0.005159959,-0.31630547,1,0,0,1.0945,stop_stud,0,8,8,22,1,throat voice,0.039,0.02,0.019,throat ,voice ,SF,images/throat-voice-sf.png,A3PQVDFT21IISU,A3PQVDFT21IISU,30,Yes,2020-12-26_15h48.29.504,weird_font_low_2,2020.2.10,Win32,60,,,,,,,,,,,,,,,,,,,,,,,,,,,,,,,,,
,,,,,,,,,0.005159959,-0.31630547,1,0,0,1.011165,stop_stud,0,9,9,20,1,stick branch,0.067,0.047,0.02,stick,branch,SF,images/stick-branch-sf.png,A3PQVDFT21IISU,A3PQVDFT21IISU,30,Yes,2020-12-26_15h48.29.504,weird_font_low_2,2020.2.10,Win32,60,,,,,,,,,,,,,,,,,,,,,,,,,,,,,,,,,
,,,,,,,,,0.005159959,-0.31630547,1,0,0,1.06389,stop_stud,0,10,10,13,1,office doctor,0.014,0.01,0.004,office,doctor ,flu,images/office-doctor-arial1.png,A3PQVDFT21IISU,A3PQVDFT21IISU,30,Yes,2020-12-26_15h48.29.504,weird_font_low_2,2020.2.10,Win32,60,,,,,,,,,,,,,,,,,,,,,,,,,,,,,,,,,
,,,,,,,,,0.005159959,-0.31630547,1,0,0,1.127915,stop_stud,0,11,11,2,1,child mother,0.03,0.01,0.02,child,mother,SF,images/child-mother-sf.png,A3PQVDFT21IISU,A3PQVDFT21IISU,30,Yes,2020-12-26_15h48.29.504,weird_font_low_2,2020.2.10,Win32,60,,,,,,,,,,,,,,,,,,,,,,,,,,,,,,,,,
,,,,,,,,,0.005159959,-0.31630547,1,0,0,0.87875,stop_stud,0,12,12,3,1,college student ,0.035,0.046,0.011,college,student,flu,images/college - student-arial1.png,A3PQVDFT21IISU,A3PQVDFT21IISU,30,Yes,2020-12-26_15h48.29.504,weird_font_low_2,2020.2.10,Win32,60,,,,,,,,,,,,,,,,,,,,,,,,,,,,,,,,,
,,,,,,,,,0.005159959,-0.31630547,1,0,0,1.170295,stop_stud,0,13,13,0,1,angle corner,0.02,0.029,0.009,angle,corner,SF,images/angle-corner-sf.png,A3PQVDFT21IISU,A3PQVDFT21IISU,30,Yes,2020-12-26_15h48.29.504,weird_font_low_2,2020.2.10,Win32,60,,,,,,,,,,,,,,,,,,,,,,,,,,,,,,,,,
,,,,,,,,,0.005159959,-0.31630547,1,0,0,0.96514,stop_stud,0,14,14,14,1,paint picture,0.036,0.031,0.005,paint,picture,flu,images/paint-picture-arial1.png,A3PQVDFT21IISU,A3PQVDFT21IISU,30,Yes,2020-12-26_15h48.29.504,weird_font_low_2,2020.2.10,Win32,60,,,,,,,,,,,,,,,,,,,,,,,,,,,,,,,,,
,,,,,,,,,0.005159959,-0.31630547,1,0,0,0.956955,stop_stud,0,15,15,21,1,taste touch,0.016,0.012,0.004,taste,touch,SF,images/taste-touch-sf.png,A3PQVDFT21IISU,A3PQVDFT21IISU,30,Yes,2020-12-26_15h48.29.504,weird_font_low_2,2020.2.10,Win32,60,,,,,,,,,,,,,,,,,,,,,,,,,,,,,,,,,
,,,,,,,,,0.005159959,-0.31630547,1,0,0,1.101905,stop_stud,0,16,16,18,1,report weather,0.015,0.024,0.009,report,weather,flu,images/report-weather-arial1.png,A3PQVDFT21IISU,A3PQVDFT21IISU,30,Yes,2020-12-26_15h48.29.504,weird_font_low_2,2020.2.10,Win32,60,,,,,,,,,,,,,,,,,,,,,,,,,,,,,,,,,
,,,,,,,,,0.005159959,-0.31630547,1,0,0,0.956825,stop_stud,0,17,17,23,1,train plane,0.051,0.049,0.002,train,plane,flu,images/train-plane-arial1.png,A3PQVDFT21IISU,A3PQVDFT21IISU,30,Yes,2020-12-26_15h48.29.504,weird_font_low_2,2020.2.10,Win32,60,,,,,,,,,,,,,,,,,,,,,,,,,,,,,,,,,
,,,,,,,,,0.005159959,-0.31630547,1,0,0,0.95387,stop_stud,0,18,18,11,1,novel story,0.034,0.034,0,novel,story,flu,images/novel-story-arial1.png,A3PQVDFT21IISU,A3PQVDFT21IISU,30,Yes,2020-12-26_15h48.29.504,weird_font_low_2,2020.2.10,Win32,60,,,,,,,,,,,,,,,,,,,,,,,,,,,,,,,,,
,,,,,,,,,0.005159959,-0.31630547,1,0,0,1.03112,stop_stud,0,19,19,7,1,group meeting,0.027,0.041,0.014,group,meeting,SF,images/group-meeting-sf.png,A3PQVDFT21IISU,A3PQVDFT21IISU,30,Yes,2020-12-26_15h48.29.504,weird_font_low_2,2020.2.10,Win32,60,,,,,,,,,,,,,,,,,,,,,,,,,,,,,,,,,
,,,,,,,,,0.005159959,-0.31630547,1,0,0,1.19978,stop_stud,0,20,20,15,1,people world,0.014,0.03,0.016,people,world,SF,images/people-world-sf.png,A3PQVDFT21IISU,A3PQVDFT21IISU,30,Yes,2020-12-26_15h48.29.504,weird_font_low_2,2020.2.10,Win32,60,,,,,,,,,,,,,,,,,,,,,,,,,,,,,,,,,
,,,,,,,,,0.005159959,-0.31630547,1,0,0,0.97702,stop_stud,0,21,21,17,1,range rifle,0.015,0.028,0.013,range,rifle,flu,images/range-rifle-arial1.png,A3PQVDFT21IISU,A3PQVDFT21IISU,30,Yes,2020-12-26_15h48.29.504,weird_font_low_2,2020.2.10,Win32,60,,,,,,,,,,,,,,,,,,,,,,,,,,,,,,,,,
,,,,,,,,,0.005159959,-0.31630547,1,0,0,1.17855,stop_stud,0,22,22,12,1,object symbol,0.014,0.021,0.007,object,symbol,SF,images/object-symbol-sf.png,A3PQVDFT21IISU,A3PQVDFT21IISU,30,Yes,2020-12-26_15h48.29.504,weird_font_low_2,2020.2.10,Win32,60,,,,,,,,,,,,,,,,,,,,,,,,,,,,,,,,,
,,,,,,,,,0.005159959,-0.31630547,1,0,0,1.02753,stop_stud,0,23,23,1,1,block street,0.04,0.019,0.021,block,street,SF,images/block-street-sf.png,A3PQVDFT21IISU,A3PQVDFT21IISU,30,Yes,2020-12-26_15h48.29.504,weird_font_low_2,2020.2.10,Win32,60,,,,,,,,,,,,,,,,,,,,,,,,,,,,,,,,,
,,,,,,,,,,,,,,,,,,,,,sheet cover,0.021,0.053,0.032,sheet,cover,SF,images/sheet-cover-sf.png,A3PQVDFT21IISU,A3PQVDFT21IISU,30,Yes,2020-12-26_15h48.29.504,weird_font_low_2,2020.2.10,Win32,60,50.51599587,0.123145,75.07739938,6.52268,0.002063983,-0.396800826,1,0,0,7.79551,polygon,cover,0.070175439,0.017027864,1,0,0,1.817845,polygon_2,1,sheet,0,0,0,19,1,,,,,,,
,,,,,,,,,,,,,,,,,,,,,novel story,0.034,0.034,0,novel,story,flu,images/novel-story-arial1.png,A3PQVDFT21IISU,A3PQVDFT21IISU,30,Yes,2020-12-26_15h48.29.504,weird_font_low_2,2020.2.10,Win32,60,,,,,,,,,,,,story,-0.07120743,-0.019091847,1,0,0,1.125145,polygon_2,1,novel,0,1,1,11,1,,,,,,,
,,,,,,,,,,,,,,,,,,,,,object symbol,0.014,0.021,0.007,object,symbol,SF,images/object-symbol-sf.png,A3PQVDFT21IISU,A3PQVDFT21IISU,30,Yes,2020-12-26_15h48.29.504,weird_font_low_2,2020.2.10,Win32,60,,,,,,,,,,,,shape,-0.046439628,0.00877193,1,0,0,1.62199,polygon_2,1,object,0,2,2,12,1,,,,,,,
,,,,,,,,,,,,,,,,,,,,,office doctor,0.014,0.01,0.004,office,doctor ,flu,images/office-doctor-arial1.png,A3PQVDFT21IISU,A3PQVDFT21IISU,30,Yes,2020-12-26_15h48.29.504,weird_font_low_2,2020.2.10,Win32,60,,,,,,,,,,,,meeting,-0.068111455,-0.006707946,1,0,0,1.212005,polygon_2,1,office,0,3,3,13,1,,,,,,,
,,,,,,,,,,,,,,,,,,,,,native foreign,0.056,0.031,0.025,native,foreign,SF,images/native-foreign-sf.png,A3PQVDFT21IISU,A3PQVDFT21IISU,30,Yes,2020-12-26_15h48.29.504,weird_font_low_2,2020.2.10,Win32,60,,,,,,,,,,,,country,-0.093911249,-0.01496388,1,0,0,1.5295,polygon_2,1,native,0,4,4,10,1,,,,,,,
,,,,,,,,,,,,,,,,,,,,,college student ,0.035,0.046,0.011,college,student,flu,images/college - student-arial1.png,A3PQVDFT21IISU,A3PQVDFT21IISU,30,Yes,2020-12-26_15h48.29.504,weird_font_low_2,2020.2.10,Win32,60,,,,,,,,,,,,school,-0.038183695,-0.003611971,1,0,0,1.69575,polygon_2,1,college,0,5,5,3,1,,,,,,,
,,,,,,,,,,,,,,,,,,,,,taste touch,0.016,0.012,0.004,taste,touch,SF,images/taste-touch-sf.png,A3PQVDFT21IISU,A3PQVDFT21IISU,30,Yes,2020-12-26_15h48.29.504,weird_font_low_2,2020.2.10,Win32,60,,,,,,,,,,,,touch,-0.066047472,0.001547988,1,0,0,0.977925,polygon_2,1,taste,0,6,6,21,1,,,,,,,
,,,,,,,,,,,,,,,,,,,,,lunch supper,0.019,0.028,0.009,lunch,supper,flu,images/lunch-supper-arial1.png,A3PQVDFT21IISU,A3PQVDFT21IISU,30,Yes,2020-12-26_15h48.29.504,weird_font_low_2,2020.2.10,Win32,60,,,,,,,,,,,,supper,-0.073271414,0.015995872,1,0,0,1.14464,polygon_2,1,lunch,0,7,7,8,1,,,,,,,
,,,,,,,,,,,,,,,,,,,,,paint picture,0.036,0.031,0.005,paint,picture,flu,images/paint-picture-arial1.png,A3PQVDFT21IISU,A3PQVDFT21IISU,30,Yes,2020-12-26_15h48.29.504,weird_font_low_2,2020.2.10,Win32,60,,,,,,,,,,,,cover,-0.061919505,0.002579979,1,0,0,1.12979,polygon_2,1,paint,0,8,8,14,1,,,,,,,
,,,,,,,,,,,,,,,,,,,,,curve shape,0.018,0.011,0.007,curve,shape,flu,images/curve-shape-arial1.png,A3PQVDFT21IISU,A3PQVDFT21IISU,30,Yes,2020-12-26_15h48.29.504,weird_font_low_2,2020.2.10,Win32,60,,,,,,,,,,,,round,-0.029927761,-0.010835913,1,0,0,0.96101,polygon_2,1,curve,0,9,9,4,1,,,,,,,
,,,,,,,,,,,,,,,,,,,,,train plane,0.051,0.049,0.002,train,plane,flu,images/train-plane-arial1.png,A3PQVDFT21IISU,A3PQVDFT21IISU,30,Yes,2020-12-26_15h48.29.504,weird_font_low_2,2020.2.10,Win32,60,,,,,,,,,,,,plane,-0.10629515,-0.007739938,1,0,0,0.9278,polygon_2,1,train,0,10,10,23,1,,,,,,,
,,,,,,,,,,,,,,,,,,,,,nation state,0.042,0.055,0.013,nation,state,flu,images/nation-state-arial1.png,A3PQVDFT21IISU,A3PQVDFT21IISU,30,Yes,2020-12-26_15h48.29.504,weird_font_low_2,2020.2.10,Win32,60,,,,,,,,,,,,state,-0.087719298,-0.003611971,1,0,0,0.79441,polygon_2,1,nation,0,11,11,9,1,,,,,,,
,,,,,,,,,,,,,,,,,,,,,people world,0.014,0.03,0.016,people,world,SF,images/people-world-sf.png,A3PQVDFT21IISU,A3PQVDFT21IISU,30,Yes,2020-12-26_15h48.29.504,weird_font_low_2,2020.2.10,Win32,60,,,,,,,,,,,,world,-0.07120743,0.020123839,1,0,0,0.9946,polygon_2,1,people,0,12,12,15,1,,,,,,,
,,,,,,,,,,,,,,,,,,,,,range rifle,0.015,0.028,0.013,range,rifle,flu,images/range-rifle-arial1.png,A3PQVDFT21IISU,A3PQVDFT21IISU,30,Yes,2020-12-26_15h48.29.504,weird_font_low_2,2020.2.10,Win32,60,,,,,,,,,,,,stove,-0.062951496,-0.003611971,1,0,0,1.295325,polygon_2,1,range,0,13,13,17,1,,,,,,,
,,,,,,,,,,,,,,,,,,,,,block street,0.04,0.019,0.021,block,street,SF,images/block-street-sf.png,A3PQVDFT21IISU,A3PQVDFT21IISU,30,Yes,2020-12-26_15h48.29.504,weird_font_low_2,2020.2.10,Win32,60,,,,,,,,,,,,story,-0.123839009,0.002579979,1,0,0,0.911275,polygon_2,1,block,0,14,14,1,1,,,,,,,
,,,,,,,,,,,,,,,,,,,,,report weather,0.015,0.024,0.009,report,weather,flu,images/report-weather-arial1.png,A3PQVDFT21IISU,A3PQVDFT21IISU,30,Yes,2020-12-26_15h48.29.504,weird_font_low_2,2020.2.10,Win32,60,,,,,,,,,,,,paper,-0.076367389,-0.020123839,1,0,0,0.810445,polygon_2,1,report,0,15,15,18,1,,,,,,,
,,,,,,,,,,,,,,,,,,,,,angle corner,0.02,0.029,0.009,angle,corner,SF,images/angle-corner-sf.png,A3PQVDFT21IISU,A3PQVDFT21IISU,30,Yes,2020-12-26_15h48.29.504,weird_font_low_2,2020.2.10,Win32,60,,,,,,,,,,,,curve,-0.092879257,0.001547988,1,0,0,0.8615,polygon_2,1,angle,0,16,16,0,1,,,,,,,
,,,,,,,,,,,,,,,,,,,,,stick branch,0.067,0.047,0.02,stick,branch,SF,images/stick-branch-sf.png,A3PQVDFT21IISU,A3PQVDFT21IISU,30,Yes,2020-12-26_15h48.29.504,weird_font_low_2,2020.2.10,Win32,60,,,,,,,,,,,,branch,-0.08875129,-0.019091847,1,0,0,0.913395,polygon_2,1,stick,0,17,17,20,1,,,,,,,
,,,,,,,,,,,,,,,,,,,,,engine machine,0.033,0.027,0.006,engine,machine,flu,images/engine-machine-arial1.png,A3PQVDFT21IISU,A3PQVDFT21IISU,30,Yes,2020-12-26_15h48.29.504,weird_font_low_2,2020.2.10,Win32,60,,,,,,,,,,,,train,-0.123839009,0.004643963,1,0,0,0.92651,polygon_2,1,engine,0,18,18,5,1,,,,,,,
,,,,,,,,,,,,,,,,,,,,,child mother,0.03,0.01,0.02,child,mother,SF,images/child-mother-sf.png,A3PQVDFT21IISU,A3PQVDFT21IISU,30,Yes,2020-12-26_15h48.29.504,weird_font_low_2,2020.2.10,Win32,60,,,,,,,,,,,,kid,-0.144478844,0.003611971,1,0,0,0.777015,polygon_2,1,child,0,19,19,2,1,,,,,,,
,,,,,,,,,,,,,,,,,,,,,throat voice,0.039,0.02,0.019,throat ,voice ,SF,images/throat-voice-sf.png,A3PQVDFT21IISU,A3PQVDFT21IISU,30,Yes,2020-12-26_15h48.29.504,weird_font_low_2,2020.2.10,Win32,60,,,,,,,,,,,,cough,-0.020639835,-0.009803922,1,0,0,1.2448,polygon_2,1,throat ,0,20,20,22,1,,,,,,,
,,,,,,,,,,,,,,,,,,,,,group meeting,0.027,0.041,0.014,group,meeting,SF,images/group-meeting-sf.png,A3PQVDFT21IISU,A3PQVDFT21IISU,30,Yes,2020-12-26_15h48.29.504,weird_font_low_2,2020.2.10,Win32,60,,,,,,,,,,,,meeting,-0.068111455,0.005675955,1,0,0,0.896795,polygon_2,1,group,0,21,21,7,1,,,,,,,
,,,,,,,,,,,,,,,,,,,,,factory product,0.02,0.028,0.008,factory,product,SF,images/factory-product-sf.png,A3PQVDFT21IISU,A3PQVDFT21IISU,30,Yes,2020-12-26_15h48.29.504,weird_font_low_2,2020.2.10,Win32,60,,,,,,,,,,,,machine,-0.053663571,-0.000515996,1,0,0,0.844695,polygon_2,1,factory,0,22,22,6,1,,,,,,,
,,,,,,,,,,,,,,,,,,,,,quarter dollar,0.061,0.027,0.034,quarter,dollar,flu,images/quarter-dollar-arial1.png,A3PQVDFT21IISU,A3PQVDFT21IISU,30,Yes,2020-12-26_15h48.29.504,weird_font_low_2,2020.2.10,Win32,60,,,,,,,,,,,,dollar,-0.049535604,-0.003611971,1,0,0,0.94427,polygon_2,1,quarter,0,23,23,16,1,,,,,,,
,,,,,,,,,,,,,,,,,,,,,,,,,,,,,A3PQVDFT21IISU,A3PQVDFT21IISU,30,Yes,2020-12-26_15h48.29.504,weird_font_low_2,2020.2.10,Win32,60,,,,,,,,,,,,,,,,,,,,,,,,,,,0.185758514,-0.137770898,1,0,0,2.14514,end_polygon
