key_resp.keys,key_resp.rt,mouse.x,mouse.y,mouse.leftButton,mouse.midButton,mouse.rightButton,mouse.time,mouse.clicked_name,mouse_4.x,mouse_4.y,mouse_4.leftButton,mouse_4.midButton,mouse_4.rightButton,mouse_4.time,mouse_4.clicked_name,cb.thisRepN,cb.thisTrialN,cb.thisN,cb.thisIndex,cb.ran,Itempairs,Forward,Backward,AbsoluteValue,cue1,targ1,font,images,participant,turkid,AGE,Did you learn English before the age of 4?,date,expName,psychopyVersion,OS,frameRate,atypic_slider.response,atypic_slider.rt,normal_slider.response,normal_slider.rt,mouse_3.x,mouse_3.y,mouse_3.leftButton,mouse_3.midButton,mouse_3.rightButton,mouse_3.time,mouse_3.clicked_name,textbox.text,mouse_5.x,mouse_5.y,mouse_5.leftButton,mouse_5.midButton,mouse_5.rightButton,mouse_5.time,mouse_5.clicked_name,correctAns,textbox_response,test.thisRepN,test.thisTrialN,test.thisN,test.thisIndex,test.ran,mouse_2.x,mouse_2.y,mouse_2.leftButton,mouse_2.midButton,mouse_2.rightButton,mouse_2.time,mouse_2.clicked_name
y,2.328885,-0.024683048,-0.331543631,1,0,0,1.862195,cont1,-0.004839086,-0.336350916,1,0,0,0.85536,stop_stud,0,0,0,16,1,quarter dollar,0.061,0.027,0.034,quarter,dollar,flu,images/quarter-dollar-arial1.png,gi,A2EY0J9LOPU3TU,40,yes,2020-12-27_09h20.24.086,weird_font_low_2,2020.2.10,MacIntel,60,,,,,,,,,,,,,,,,,,,,,,,,,,,,,,,,,
,,,,,,,,,-0.004839086,-0.336350916,1,0,0,0.94664,stop_stud,0,1,1,4,1,curve shape,0.018,0.011,0.007,curve,shape,flu,images/curve-shape-arial1.png,gi,A2EY0J9LOPU3TU,40,yes,2020-12-27_09h20.24.086,weird_font_low_2,2020.2.10,MacIntel,60,,,,,,,,,,,,,,,,,,,,,,,,,,,,,,,,,
,,,,,,,,,-0.004531674,-0.336965739,1,0,0,1.16732,stop_stud,0,2,2,9,1,nation state,0.042,0.055,0.013,nation,state,flu,images/nation-state-arial1.png,gi,A2EY0J9LOPU3TU,40,yes,2020-12-27_09h20.24.086,weird_font_low_2,2020.2.10,MacIntel,60,,,,,,,,,,,,,,,,,,,,,,,,,,,,,,,,,
,,,,,,,,,-0.004531674,-0.336965739,1,0,0,1.16549,stop_stud,0,3,3,18,1,report weather,0.015,0.024,0.009,report,weather,flu,images/report-weather-arial1.png,gi,A2EY0J9LOPU3TU,40,yes,2020-12-27_09h20.24.086,weird_font_low_2,2020.2.10,MacIntel,60,,,,,,,,,,,,,,,,,,,,,,,,,,,,,,,,,
,,,,,,,,,-0.004224262,-0.336965739,1,0,0,1.364925,stop_stud,0,4,4,6,1,factory product,0.02,0.028,0.008,factory,product,SF,images/factory-product-sf.png,gi,A2EY0J9LOPU3TU,40,yes,2020-12-27_09h20.24.086,weird_font_low_2,2020.2.10,MacIntel,60,,,,,,,,,,,,,,,,,,,,,,,,,,,,,,,,,
,,,,,,,,,-0.002061779,-0.337580563,1,0,0,0.91543,stop_stud,0,5,5,15,1,people world,0.014,0.03,0.016,people,world,SF,images/people-world-sf.png,gi,A2EY0J9LOPU3TU,40,yes,2020-12-27_09h20.24.086,weird_font_low_2,2020.2.10,MacIntel,60,,,,,,,,,,,,,,,,,,,,,,,,,,,,,,,,,
,,,,,,,,,0.001022939,-0.336642427,1,0,0,0.947705,stop_stud,0,6,6,19,1,sheet cover,0.021,0.053,0.032,sheet,cover,SF,images/sheet-cover-sf.png,gi,A2EY0J9LOPU3TU,40,yes,2020-12-27_09h20.24.086,weird_font_low_2,2020.2.10,MacIntel,60,,,,,,,,,,,,,,,,,,,,,,,,,,,,,,,,,
,,,,,,,,,0.00287271,-0.337564662,1,0,0,0.96619,stop_stud,0,7,7,5,1,engine machine,0.033,0.027,0.006,engine,machine,flu,images/engine-machine-arial1.png,gi,A2EY0J9LOPU3TU,40,yes,2020-12-27_09h20.24.086,weird_font_low_2,2020.2.10,MacIntel,60,,,,,,,,,,,,,,,,,,,,,,,,,,,,,,,,,
,,,,,,,,,0.00287271,-0.337564662,1,0,0,0.766105,stop_stud,0,8,8,2,1,child mother,0.03,0.01,0.02,child,mother,SF,images/child-mother-sf.png,gi,A2EY0J9LOPU3TU,40,yes,2020-12-27_09h20.24.086,weird_font_low_2,2020.2.10,MacIntel,60,,,,,,,,,,,,,,,,,,,,,,,,,,,,,,,,,
,,,,,,,,,0.00287271,-0.337564662,1,0,0,0.998855,stop_stud,0,9,9,11,1,novel story,0.034,0.034,0,novel,story,flu,images/novel-story-arial1.png,gi,A2EY0J9LOPU3TU,40,yes,2020-12-27_09h20.24.086,weird_font_low_2,2020.2.10,MacIntel,60,,,,,,,,,,,,,,,,,,,,,,,,,,,,,,,,,
,,,,,,,,,0.00287271,-0.337564662,1,0,0,0.765865,stop_stud,0,10,10,14,1,paint picture,0.036,0.031,0.005,paint,picture,flu,images/paint-picture-arial1.png,gi,A2EY0J9LOPU3TU,40,yes,2020-12-27_09h20.24.086,weird_font_low_2,2020.2.10,MacIntel,60,,,,,,,,,,,,,,,,,,,,,,,,,,,,,,,,,
,,,,,,,,,0.006826662,-0.337564662,1,0,0,0.915545,stop_stud,0,11,11,7,1,group meeting,0.027,0.041,0.014,group,meeting,SF,images/group-meeting-sf.png,gi,A2EY0J9LOPU3TU,40,yes,2020-12-27_09h20.24.086,weird_font_low_2,2020.2.10,MacIntel,60,,,,,,,,,,,,,,,,,,,,,,,,,,,,,,,,,
,,,,,,,,,0.007441486,-0.337564662,1,0,0,0.933315,stop_stud,0,12,12,10,1,native foreign,0.056,0.031,0.025,native,foreign,SF,images/native-foreign-sf.png,gi,A2EY0J9LOPU3TU,40,yes,2020-12-27_09h20.24.086,weird_font_low_2,2020.2.10,MacIntel,60,,,,,,,,,,,,,,,,,,,,,,,,,,,,,,,,,
,,,,,,,,,0.007441486,-0.337564662,1,0,0,1.032935,stop_stud,0,13,13,1,1,block street,0.04,0.019,0.021,block,street,SF,images/block-street-sf.png,gi,A2EY0J9LOPU3TU,40,yes,2020-12-27_09h20.24.086,weird_font_low_2,2020.2.10,MacIntel,60,,,,,,,,,,,,,,,,,,,,,,,,,,,,,,,,,
,,,,,,,,,0.007748898,-0.337564662,1,0,0,0.91664,stop_stud,0,14,14,21,1,taste touch,0.016,0.012,0.004,taste,touch,SF,images/taste-touch-sf.png,gi,A2EY0J9LOPU3TU,40,yes,2020-12-27_09h20.24.086,weird_font_low_2,2020.2.10,MacIntel,60,,,,,,,,,,,,,,,,,,,,,,,,,,,,,,,,,
,,,,,,,,,0.008369021,-0.337564662,1,0,0,0.682765,stop_stud,0,15,15,3,1,college student ,0.035,0.046,0.011,college,student,flu,images/college - student-arial1.png,gi,A2EY0J9LOPU3TU,40,yes,2020-12-27_09h20.24.086,weird_font_low_2,2020.2.10,MacIntel,60,,,,,,,,,,,,,,,,,,,,,,,,,,,,,,,,,
,,,,,,,,,0.008369021,-0.337564662,1,0,0,0.54758,stop_stud,0,16,16,17,1,range rifle,0.015,0.028,0.013,range,rifle,flu,images/range-rifle-arial1.png,gi,A2EY0J9LOPU3TU,40,yes,2020-12-27_09h20.24.086,weird_font_low_2,2020.2.10,MacIntel,60,,,,,,,,,,,,,,,,,,,,,,,,,,,,,,,,,
,,,,,,,,,0.008369021,-0.337564662,1,0,0,0.98273,stop_stud,0,17,17,8,1,lunch supper,0.019,0.028,0.009,lunch,supper,flu,images/lunch-supper-arial1.png,gi,A2EY0J9LOPU3TU,40,yes,2020-12-27_09h20.24.086,weird_font_low_2,2020.2.10,MacIntel,60,,,,,,,,,,,,,,,,,,,,,,,,,,,,,,,,,
,,,,,,,,,0.008676433,-0.337564662,1,0,0,0.900025,stop_stud,0,18,18,20,1,stick branch,0.067,0.047,0.02,stick,branch,SF,images/stick-branch-sf.png,gi,A2EY0J9LOPU3TU,40,yes,2020-12-27_09h20.24.086,weird_font_low_2,2020.2.10,MacIntel,60,,,,,,,,,,,,,,,,,,,,,,,,,,,,,,,,,
,,,,,,,,,0.009291257,-0.337564662,1,0,0,1.26529,stop_stud,0,19,19,0,1,angle corner,0.02,0.029,0.009,angle,corner,SF,images/angle-corner-sf.png,gi,A2EY0J9LOPU3TU,40,yes,2020-12-27_09h20.24.086,weird_font_low_2,2020.2.10,MacIntel,60,,,,,,,,,,,,,,,,,,,,,,,,,,,,,,,,,
,,,,,,,,,0.009291257,-0.337564662,1,0,0,1.049135,stop_stud,0,20,20,23,1,train plane,0.051,0.049,0.002,train,plane,flu,images/train-plane-arial1.png,gi,A2EY0J9LOPU3TU,40,yes,2020-12-27_09h20.24.086,weird_font_low_2,2020.2.10,MacIntel,60,,,,,,,,,,,,,,,,,,,,,,,,,,,,,,,,,
,,,,,,,,,0.009291257,-0.337564662,1,0,0,0.982765,stop_stud,0,21,21,22,1,throat voice,0.039,0.02,0.019,throat ,voice ,SF,images/throat-voice-sf.png,gi,A2EY0J9LOPU3TU,40,yes,2020-12-27_09h20.24.086,weird_font_low_2,2020.2.10,MacIntel,60,,,,,,,,,,,,,,,,,,,,,,,,,,,,,,,,,
,,,,,,,,,0.009291257,-0.337564662,1,0,0,0.698905,stop_stud,0,22,22,13,1,office doctor,0.014,0.01,0.004,office,doctor ,flu,images/office-doctor-arial1.png,gi,A2EY0J9LOPU3TU,40,yes,2020-12-27_09h20.24.086,weird_font_low_2,2020.2.10,MacIntel,60,,,,,,,,,,,,,,,,,,,,,,,,,,,,,,,,,
,,,,,,,,,0.009291257,-0.337564662,1,0,0,0.801055,stop_stud,0,23,23,12,1,object symbol,0.014,0.021,0.007,object,symbol,SF,images/object-symbol-sf.png,gi,A2EY0J9LOPU3TU,40,yes,2020-12-27_09h20.24.086,weird_font_low_2,2020.2.10,MacIntel,60,,,,,,,,,,,,,,,,,,,,,,,,,,,,,,,,,
,,,,,,,,,,,,,,,,,,,,,sheet cover,0.021,0.053,0.032,sheet,cover,SF,images/sheet-cover-sf.png,gi,A2EY0J9LOPU3TU,40,yes,2020-12-27_09h20.24.086,weird_font_low_2,2020.2.10,MacIntel,60,50.92912568,0.17462,70.7396964,1.77807,0.004314366,-0.405333065,1,0,0,2.648505,polygon,paper,-0.024142427,-0.004738382,1,0,0,1.2208,polygon_2,1,sheet,0,0,0,19,1,,,,,,,
,,,,,,,,,,,,,,,,,,,,,office doctor,0.014,0.01,0.004,office,doctor ,flu,images/office-doctor-arial1.png,gi,A2EY0J9LOPU3TU,40,yes,2020-12-27_09h20.24.086,weird_font_low_2,2020.2.10,MacIntel,60,,,,,,,,,,,,room,-0.142310465,-0.049010982,1,0,0,1.08031,polygon_2,1,office,0,1,1,13,1,,,,,,,
,,,,,,,,,,,,,,,,,,,,,paint picture,0.036,0.031,0.005,paint,picture,flu,images/paint-picture-arial1.png,gi,A2EY0J9LOPU3TU,40,yes,2020-12-27_09h20.24.086,weird_font_low_2,2020.2.10,MacIntel,60,,,,,,,,,,,,wall,-0.178600958,-0.029469132,1,0,0,0.744565,polygon_2,1,paint,0,2,2,14,1,,,,,,,
,,,,,,,,,,,,,,,,,,,,,curve shape,0.018,0.011,0.007,curve,shape,flu,images/curve-shape-arial1.png,gi,A2EY0J9LOPU3TU,40,yes,2020-12-27_09h20.24.086,weird_font_low_2,2020.2.10,MacIntel,60,,,,,,,,,,,,corner,-0.151617622,-0.042481131,1,0,0,0.826535,polygon_2,1,curve,0,3,3,4,1,,,,,,,
,,,,,,,,,,,,,,,,,,,,,factory product,0.02,0.028,0.008,factory,product,SF,images/factory-product-sf.png,gi,A2EY0J9LOPU3TU,40,yes,2020-12-27_09h20.24.086,weird_font_low_2,2020.2.10,MacIntel,60,,,,,,,,,,,,paper,-0.142723881,0.000985838,1,0,0,0.71254,polygon_2,1,factory,0,4,4,6,1,,,,,,,
,,,,,,,,,,,,,,,,,,,,,lunch supper,0.019,0.028,0.009,lunch,supper,flu,images/lunch-supper-arial1.png,gi,A2EY0J9LOPU3TU,40,yes,2020-12-27_09h20.24.086,weird_font_low_2,2020.2.10,MacIntel,60,,,,,,,,,,,,supper,-0.0885452,-0.022504664,1,0,0,0.712155,polygon_2,1,lunch,0,5,5,8,1,,,,,,,
,,,,,,,,,,,,,,,,,,,,,train plane,0.051,0.049,0.002,train,plane,flu,images/train-plane-arial1.png,gi,A2EY0J9LOPU3TU,40,yes,2020-12-27_09h20.24.086,weird_font_low_2,2020.2.10,MacIntel,60,,,,,,,,,,,,commute,-0.236293674,-0.00910575,1,0,0,0.728895,polygon_2,1,train,0,6,6,23,1,,,,,,,
,,,,,,,,,,,,,,,,,,,,,people world,0.014,0.03,0.016,people,world,SF,images/people-world-sf.png,gi,A2EY0J9LOPU3TU,40,yes,2020-12-27_09h20.24.086,weird_font_low_2,2020.2.10,MacIntel,60,,,,,,,,,,,,mother,-0.290732064,-0.012656886,1,0,0,0.77901,polygon_2,1,people,0,7,7,15,1,,,,,,,
,,,,,,,,,,,,,,,,,,,,,object symbol,0.014,0.021,0.007,object,symbol,SF,images/object-symbol-sf.png,gi,A2EY0J9LOPU3TU,40,yes,2020-12-27_09h20.24.086,weird_font_low_2,2020.2.10,MacIntel,60,,,,,,,,,,,,stuff,-0.19948376,-0.037133226,1,0,0,0.74586,polygon_2,1,object,0,8,8,12,1,,,,,,,
,,,,,,,,,,,,,,,,,,,,,block street,0.04,0.019,0.021,block,street,SF,images/block-street-sf.png,gi,A2EY0J9LOPU3TU,40,yes,2020-12-27_09h20.24.086,weird_font_low_2,2020.2.10,MacIntel,60,,,,,,,,,,,,corner,-0.267172659,-0.025154766,1,0,0,0.676845,polygon_2,1,block,0,9,9,1,1,,,,,,,
,,,,,,,,,,,,,,,,,,,,,taste touch,0.016,0.012,0.004,taste,touch,SF,images/taste-touch-sf.png,gi,A2EY0J9LOPU3TU,40,yes,2020-12-27_09h20.24.086,weird_font_low_2,2020.2.10,MacIntel,60,,,,,,,,,,,,lunch,-0.280258862,-0.051947295,1,0,0,0.929685,polygon_2,1,taste,0,10,10,21,1,,,,,,,
,,,,,,,,,,,,,,,,,,,,,throat voice,0.039,0.02,0.019,throat ,voice ,SF,images/throat-voice-sf.png,gi,A2EY0J9LOPU3TU,40,yes,2020-12-27_09h20.24.086,weird_font_low_2,2020.2.10,MacIntel,60,,,,,,,,,,,,,0.010536805,-0.313316231,1,0,0,1.594855,polygon_2,1,throat ,0,11,11,22,1,,,,,,,
,,,,,,,,,,,,,,,,,,,,,college student ,0.035,0.046,0.011,college,student,flu,images/college - student-arial1.png,gi,A2EY0J9LOPU3TU,40,yes,2020-12-27_09h20.24.086,weird_font_low_2,2020.2.10,MacIntel,60,,,,,,,,,,,,school,-0.206448228,-0.009492665,1,0,0,1.18169,polygon_2,1,college,0,12,12,3,1,,,,,,,
,,,,,,,,,,,,,,,,,,,,,angle corner,0.02,0.029,0.009,angle,corner,SF,images/angle-corner-sf.png,gi,A2EY0J9LOPU3TU,40,yes,2020-12-27_09h20.24.086,weird_font_low_2,2020.2.10,MacIntel,60,,,,,,,,,,,,corner,-0.234650611,-0.003572337,1,0,0,0.960715,polygon_2,1,angle,0,13,13,0,1,,,,,,,
,,,,,,,,,,,,,,,,,,,,,stick branch,0.067,0.047,0.02,stick,branch,SF,images/stick-branch-sf.png,gi,A2EY0J9LOPU3TU,40,yes,2020-12-27_09h20.24.086,weird_font_low_2,2020.2.10,MacIntel,60,,,,,,,,,,,,,-0.004791384,-0.304894208,1,0,0,1.112395,polygon_2,1,stick,0,14,14,20,1,,,,,,,
,,,,,,,,,,,,,,,,,,,,,group meeting,0.027,0.041,0.014,group,meeting,SF,images/group-meeting-sf.png,gi,A2EY0J9LOPU3TU,40,yes,2020-12-27_09h20.24.086,weird_font_low_2,2020.2.10,MacIntel,60,,,,,,,,,,,,,-0.004791384,-0.304894208,1,0,0,1.03073,polygon_2,1,group,0,15,15,7,1,,,,,,,
,,,,,,,,,,,,,,,,,,,,,quarter dollar,0.061,0.027,0.034,quarter,dollar,flu,images/quarter-dollar-arial1.png,gi,A2EY0J9LOPU3TU,40,yes,2020-12-27_09h20.24.086,weird_font_low_2,2020.2.10,MacIntel,60,,,,,,,,,,,,metal,-0.283317079,0.020421684,1,0,0,1.597595,polygon_2,1,quarter,0,16,16,16,1,,,,,,,
,,,,,,,,,,,,,,,,,,,,,child mother,0.03,0.01,0.02,child,mother,SF,images/child-mother-sf.png,gi,A2EY0J9LOPU3TU,40,yes,2020-12-27_09h20.24.086,weird_font_low_2,2020.2.10,MacIntel,60,,,,,,,,,,,,mother,-0.270093072,-0.038156165,1,0,0,1.06327,polygon_2,1,child,0,17,17,2,1,,,,,,,
,,,,,,,,,,,,,,,,,,,,,engine machine,0.033,0.027,0.006,engine,machine,flu,images/engine-machine-arial1.png,gi,A2EY0J9LOPU3TU,40,yes,2020-12-27_09h20.24.086,weird_font_low_2,2020.2.10,MacIntel,60,,,,,,,,,,,,,-0.272817376,-0.008236516,1,0,0,0.949185,polygon_2,1,engine,0,18,18,5,1,,,,,,,
,,,,,,,,,,,,,,,,,,,,,native foreign,0.056,0.031,0.025,native,foreign,SF,images/native-foreign-sf.png,gi,A2EY0J9LOPU3TU,40,yes,2020-12-27_09h20.24.086,weird_font_low_2,2020.2.10,MacIntel,60,,,,,,,,,,,,original,-0.261655148,-0.028827807,1,0,0,1.16449,polygon_2,1,native,0,19,19,10,1,,,,,,,
,,,,,,,,,,,,,,,,,,,,,report weather,0.015,0.024,0.009,report,weather,flu,images/report-weather-arial1.png,gi,A2EY0J9LOPU3TU,40,yes,2020-12-27_09h20.24.086,weird_font_low_2,2020.2.10,MacIntel,60,,,,,,,,,,,,paper,-0.220610371,-0.004383268,1,0,0,0.943805,polygon_2,1,report,0,20,20,18,1,,,,,,,
,,,,,,,,,,,,,,,,,,,,,novel story,0.034,0.034,0,novel,story,flu,images/novel-story-arial1.png,gi,A2EY0J9LOPU3TU,40,yes,2020-12-27_09h20.24.086,weird_font_low_2,2020.2.10,MacIntel,60,,,,,,,,,,,,,-0.003090019,-0.311392257,1,0,0,0.19626,polygon_2,1,novel,0,21,21,11,1,,,,,,,
,,,,,,,,,,,,,,,,,,,,,nation state,0.042,0.055,0.013,nation,state,flu,images/nation-state-arial1.png,gi,A2EY0J9LOPU3TU,40,yes,2020-12-27_09h20.24.086,weird_font_low_2,2020.2.10,MacIntel,60,,,,,,,,,,,,state,-0.225195047,-0.007457386,1,0,0,1.097165,polygon_2,1,nation,0,22,22,9,1,,,,,,,
,,,,,,,,,,,,,,,,,,,,,range rifle,0.015,0.028,0.013,range,rifle,flu,images/range-rifle-arial1.png,gi,A2EY0J9LOPU3TU,40,yes,2020-12-27_09h20.24.086,weird_font_low_2,2020.2.10,MacIntel,60,,,,,,,,,,,,side,-0.245213916,0.007621693,1,0,0,0.94811,polygon_2,1,range,0,23,23,17,1,,,,,,,
,,,,,,,,,,,,,,,,,,,,,,,,,,,,,gi,A2EY0J9LOPU3TU,40,yes,2020-12-27_09h20.24.086,weird_font_low_2,2020.2.10,MacIntel,60,,,,,,,,,,,,,,,,,,,,,,,,,,,0.295131233,-0.131455648,1,0,0,1.49695,end_polygon
