key_resp.keys,key_resp.rt,mouse.x,mouse.y,mouse.leftButton,mouse.midButton,mouse.rightButton,mouse.time,mouse.clicked_name,mouse_4.x,mouse_4.y,mouse_4.leftButton,mouse_4.midButton,mouse_4.rightButton,mouse_4.time,mouse_4.clicked_name,cb.thisRepN,cb.thisTrialN,cb.thisN,cb.thisIndex,cb.ran,Forward,Backward,AbsoluteValue,cue1,targ1,font,images,participant,turkid,Age,Did you learn English before the age of 4?,date,expName,psychopyVersion,OS,frameRate,atypic_slider.response,atypic_slider.rt,normal_slider.response,normal_slider.rt,mouse_3.x,mouse_3.y,mouse_3.leftButton,mouse_3.midButton,mouse_3.rightButton,mouse_3.time,mouse_3.clicked_name,textbox.text,mouse_5.x,mouse_5.y,mouse_5.leftButton,mouse_5.midButton,mouse_5.rightButton,mouse_5.time,mouse_5.clicked_name,correctAns,textbox_response,test.thisRepN,test.thisTrialN,test.thisN,test.thisIndex,test.ran,mouse_2.x,mouse_2.y,mouse_2.leftButton,mouse_2.midButton,mouse_2.rightButton,mouse_2.time,mouse_2.clicked_name
y,1.529,0.259930915,0.052677029,1,0,0,0.743,cont1,0.001727116,-0.304835924,1,0,0,2.32,stop_stud,0,0,0,7,1,0.027,0.041,0.014,group,meeting,flu,images/group-meeting-arial1.png,A34CPKFZXBX1PO,A34CPKFZXBX1PO,22,Yes,2020-12-28_14h55.48.445,weird_font_low_1,2020.2.10,MacIntel,60,,,,,,,,,,,,,,,,,,,,,,,,,,,,,,,,,
,,,,,,,,,0.001727116,-0.304835924,1,0,0,1.503,stop_stud,0,1,1,8,1,0.019,0.028,0.009,lunch,supper,SF,images/lunch-supper-sf.png,A34CPKFZXBX1PO,A34CPKFZXBX1PO,22,Yes,2020-12-28_14h55.48.445,weird_font_low_1,2020.2.10,MacIntel,60,,,,,,,,,,,,,,,,,,,,,,,,,,,,,,,,,
,,,,,,,,,0.001727116,-0.304835924,1,0,0,2.867,stop_stud,0,2,2,10,1,0.056,0.031,0.025,native,foreign,flu,images/native-foreign-arial1.png,A34CPKFZXBX1PO,A34CPKFZXBX1PO,22,Yes,2020-12-28_14h55.48.445,weird_font_low_1,2020.2.10,MacIntel,60,,,,,,,,,,,,,,,,,,,,,,,,,,,,,,,,,
,,,,,,,,,0.001727116,-0.304835924,1,0,0,1.314,stop_stud,0,3,3,6,1,0.02,0.028,0.008,factory,product,flu,images/factory-product-arial1.png,A34CPKFZXBX1PO,A34CPKFZXBX1PO,22,Yes,2020-12-28_14h55.48.445,weird_font_low_1,2020.2.10,MacIntel,60,,,,,,,,,,,,,,,,,,,,,,,,,,,,,,,,,
,,,,,,,,,0.001727116,-0.304835924,1,0,0,2.665,stop_stud,0,4,4,12,1,0.014,0.021,0.007,object,symbol,flu,images/object-symbol-arial1.png,A34CPKFZXBX1PO,A34CPKFZXBX1PO,22,Yes,2020-12-28_14h55.48.445,weird_font_low_1,2020.2.10,MacIntel,60,,,,,,,,,,,,,,,,,,,,,,,,,,,,,,,,,
,,,,,,,,,0.001727116,-0.304835924,1,0,0,1.935,stop_stud,0,5,5,17,1,0.015,0.028,0.013,range,rifle,SF,images/range-rifle-sf.png,A34CPKFZXBX1PO,A34CPKFZXBX1PO,22,Yes,2020-12-28_14h55.48.445,weird_font_low_1,2020.2.10,MacIntel,60,,,,,,,,,,,,,,,,,,,,,,,,,,,,,,,,,
,,,,,,,,,0.001727116,-0.304835924,1,0,0,1.839,stop_stud,0,6,6,21,1,0.016,0.012,0.004,taste,touch,flu,images/taste-touch-arial1.png,A34CPKFZXBX1PO,A34CPKFZXBX1PO,22,Yes,2020-12-28_14h55.48.445,weird_font_low_1,2020.2.10,MacIntel,60,,,,,,,,,,,,,,,,,,,,,,,,,,,,,,,,,
,,,,,,,,,0.001727116,-0.304835924,1,0,0,1.298,stop_stud,0,7,7,5,1,0.033,0.027,0.006,engine,machine,SF,images/engine-machine-sf.png,A34CPKFZXBX1PO,A34CPKFZXBX1PO,22,Yes,2020-12-28_14h55.48.445,weird_font_low_1,2020.2.10,MacIntel,60,,,,,,,,,,,,,,,,,,,,,,,,,,,,,,,,,
,,,,,,,,,0.001727116,-0.304835924,1,0,0,14.397,stop_stud,0,8,8,1,1,0.04,0.019,0.021,block,street,flu,images/block-street-arial1.png,A34CPKFZXBX1PO,A34CPKFZXBX1PO,22,Yes,2020-12-28_14h55.48.445,weird_font_low_1,2020.2.10,MacIntel,60,,,,,,,,,,,,,,,,,,,,,,,,,,,,,,,,,
,,,,,,,,,0.001727116,-0.304835924,1,0,0,10.516,stop_stud,0,9,9,16,1,0.061,0.027,0.034,quarter,dollar,SF,images/quarter-dollar-sf.png,A34CPKFZXBX1PO,A34CPKFZXBX1PO,22,Yes,2020-12-28_14h55.48.445,weird_font_low_1,2020.2.10,MacIntel,60,,,,,,,,,,,,,,,,,,,,,,,,,,,,,,,,,
,,,,,,,,,0.001727116,-0.304835924,1,0,0,0.947,stop_stud,0,10,10,11,1,0.034,0.034,0,novel,story,SF,images/novel-story-sf.png,A34CPKFZXBX1PO,A34CPKFZXBX1PO,22,Yes,2020-12-28_14h55.48.445,weird_font_low_1,2020.2.10,MacIntel,60,,,,,,,,,,,,,,,,,,,,,,,,,,,,,,,,,
,,,,,,,,,0.001727116,-0.304835924,1,0,0,1.964,stop_stud,0,11,11,19,1,0.021,0.053,0.032,sheet,cover,flu,images/sheet-cover-arial1.png,A34CPKFZXBX1PO,A34CPKFZXBX1PO,22,Yes,2020-12-28_14h55.48.445,weird_font_low_1,2020.2.10,MacIntel,60,,,,,,,,,,,,,,,,,,,,,,,,,,,,,,,,,
,,,,,,,,,0.001727116,-0.304835924,1,0,0,1.315,stop_stud,0,12,12,18,1,0.015,0.024,0.009,report,weather,SF,images/report-weather-sf.png,A34CPKFZXBX1PO,A34CPKFZXBX1PO,22,Yes,2020-12-28_14h55.48.445,weird_font_low_1,2020.2.10,MacIntel,60,,,,,,,,,,,,,,,,,,,,,,,,,,,,,,,,,
,,,,,,,,,0.001727116,-0.304835924,1,0,0,1.415,stop_stud,0,13,13,14,1,0.036,0.031,0.005,paint,picture,SF,images/paint-picture-sf.png,A34CPKFZXBX1PO,A34CPKFZXBX1PO,22,Yes,2020-12-28_14h55.48.445,weird_font_low_1,2020.2.10,MacIntel,60,,,,,,,,,,,,,,,,,,,,,,,,,,,,,,,,,
,,,,,,,,,0.001727116,-0.304835924,1,0,0,1.082,stop_stud,0,14,14,3,1,0.035,0.046,0.011,college,student,SF,images/college-student-sf.png,A34CPKFZXBX1PO,A34CPKFZXBX1PO,22,Yes,2020-12-28_14h55.48.445,weird_font_low_1,2020.2.10,MacIntel,60,,,,,,,,,,,,,,,,,,,,,,,,,,,,,,,,,
,,,,,,,,,0.001727116,-0.304835924,1,0,0,1.197,stop_stud,0,15,15,13,1,0.014,0.01,0.004,office,doctor ,SF,images/office-doctor-sf.png,A34CPKFZXBX1PO,A34CPKFZXBX1PO,22,Yes,2020-12-28_14h55.48.445,weird_font_low_1,2020.2.10,MacIntel,60,,,,,,,,,,,,,,,,,,,,,,,,,,,,,,,,,
,,,,,,,,,0.001727116,-0.304835924,1,0,0,1.232,stop_stud,0,16,16,15,1,0.014,0.03,0.016,people,world,flu,images/people -world-arial1.png,A34CPKFZXBX1PO,A34CPKFZXBX1PO,22,Yes,2020-12-28_14h55.48.445,weird_font_low_1,2020.2.10,MacIntel,60,,,,,,,,,,,,,,,,,,,,,,,,,,,,,,,,,
,,,,,,,,,0.001727116,-0.304835924,1,0,0,1.131,stop_stud,0,17,17,22,1,0.039,0.02,0.019,throat ,voice ,flu,images/throat-voice-arial1.png,A34CPKFZXBX1PO,A34CPKFZXBX1PO,22,Yes,2020-12-28_14h55.48.445,weird_font_low_1,2020.2.10,MacIntel,60,,,,,,,,,,,,,,,,,,,,,,,,,,,,,,,,,
,,,,,,,,,0.001727116,-0.304835924,1,0,0,1.247,stop_stud,0,18,18,4,1,0.018,0.011,0.007,curve,shape,SF,images/curve-shape-sf.png,A34CPKFZXBX1PO,A34CPKFZXBX1PO,22,Yes,2020-12-28_14h55.48.445,weird_font_low_1,2020.2.10,MacIntel,60,,,,,,,,,,,,,,,,,,,,,,,,,,,,,,,,,
,,,,,,,,,0.001727116,-0.304835924,1,0,0,1.18,stop_stud,0,19,19,0,1,0.02,0.029,0.009,angle,corner,flu,images/angle-corner-arial1.png,A34CPKFZXBX1PO,A34CPKFZXBX1PO,22,Yes,2020-12-28_14h55.48.445,weird_font_low_1,2020.2.10,MacIntel,60,,,,,,,,,,,,,,,,,,,,,,,,,,,,,,,,,
,,,,,,,,,0.001727116,-0.304835924,1,0,0,1.332,stop_stud,0,20,20,2,1,0.03,0.01,0.02,child,mother,flu,images/child-mother-arial1.png,A34CPKFZXBX1PO,A34CPKFZXBX1PO,22,Yes,2020-12-28_14h55.48.445,weird_font_low_1,2020.2.10,MacIntel,60,,,,,,,,,,,,,,,,,,,,,,,,,,,,,,,,,
,,,,,,,,,0.001727116,-0.304835924,1,0,0,1.615,stop_stud,0,21,21,23,1,0.051,0.049,0.002,train,plane,SF,images/train-plane-sf.png,A34CPKFZXBX1PO,A34CPKFZXBX1PO,22,Yes,2020-12-28_14h55.48.445,weird_font_low_1,2020.2.10,MacIntel,60,,,,,,,,,,,,,,,,,,,,,,,,,,,,,,,,,
,,,,,,,,,0.001727116,-0.304835924,1,0,0,2.631,stop_stud,0,22,22,9,1,0.042,0.055,0.013,nation,state,SF,images/nation-state-sf.png,A34CPKFZXBX1PO,A34CPKFZXBX1PO,22,Yes,2020-12-28_14h55.48.445,weird_font_low_1,2020.2.10,MacIntel,60,,,,,,,,,,,,,,,,,,,,,,,,,,,,,,,,,
,,,,,,,,,0.001727116,-0.304835924,1,0,0,2.601,stop_stud,0,23,23,20,1,0.067,0.047,0.02,stick,branch,flu,images/stick-branch-arial1.png,A34CPKFZXBX1PO,A34CPKFZXBX1PO,22,Yes,2020-12-28_14h55.48.445,weird_font_low_1,2020.2.10,MacIntel,60,,,,,,,,,,,,,,,,,,,,,,,,,,,,,,,,,
,,,,,,,,,,,,,,,,,,,,,0.02,0.028,0.008,factory,product,flu,images/factory-product-arial1.png,A34CPKFZXBX1PO,A34CPKFZXBX1PO,22,Yes,2020-12-28_14h55.48.445,weird_font_low_1,2020.2.10,MacIntel,60,50.17271157,0.092,50.17271157,9.44,0.006908463,-0.414507772,1,0,0,14.843,polygon,,-0.189982729,0.013816926,1,0,0,1.281,polygon_2,1,factory,0,0,0,6,1,,,,,,,
,,,,,,,,,,,,,,,,,,,,,0.014,0.021,0.007,object,symbol,flu,images/object-symbol-arial1.png,A34CPKFZXBX1PO,A34CPKFZXBX1PO,22,Yes,2020-12-28_14h55.48.445,weird_font_low_1,2020.2.10,MacIntel,60,,,,,,,,,,,,sign,0.044041451,-0.025906736,1,0,0,0.912,polygon_2,1,object,0,1,1,12,1,,,,,,,
,,,,,,,,,,,,,,,,,,,,,0.039,0.02,0.019,throat ,voice ,flu,images/throat-voice-arial1.png,A34CPKFZXBX1PO,A34CPKFZXBX1PO,22,Yes,2020-12-28_14h55.48.445,weird_font_low_1,2020.2.10,MacIntel,60,,,,,,,,,,,,voice,-0.067357513,-0.025043178,1,0,0,1.196,polygon_2,1,throat ,0,2,2,22,1,,,,,,,
,,,,,,,,,,,,,,,,,,,,,0.027,0.041,0.014,group,meeting,flu,images/group-meeting-arial1.png,A34CPKFZXBX1PO,A34CPKFZXBX1PO,22,Yes,2020-12-28_14h55.48.445,weird_font_low_1,2020.2.10,MacIntel,60,,,,,,,,,,,,,0.007772021,-0.015544041,1,0,0,0.828,polygon_2,1,group,0,3,3,7,1,,,,,,,
,,,,,,,,,,,,,,,,,,,,,0.014,0.03,0.016,people,world,flu,images/people -world-arial1.png,A34CPKFZXBX1PO,A34CPKFZXBX1PO,22,Yes,2020-12-28_14h55.48.445,weird_font_low_1,2020.2.10,MacIntel,60,,,,,,,,,,,,world,0.022452504,-0.042314335,1,0,0,0.828,polygon_2,1,people,0,4,4,15,1,,,,,,,
,,,,,,,,,,,,,,,,,,,,,0.042,0.055,0.013,nation,state,SF,images/nation-state-sf.png,A34CPKFZXBX1PO,A34CPKFZXBX1PO,22,Yes,2020-12-28_14h55.48.445,weird_font_low_1,2020.2.10,MacIntel,60,,,,,,,,,,,,country,0.065630397,-0.039723661,1,0,0,0.847,polygon_2,1,nation,0,5,5,9,1,,,,,,,
,,,,,,,,,,,,,,,,,,,,,0.015,0.024,0.009,report,weather,SF,images/report-weather-sf.png,A34CPKFZXBX1PO,A34CPKFZXBX1PO,22,Yes,2020-12-28_14h55.48.445,weird_font_low_1,2020.2.10,MacIntel,60,,,,,,,,,,,,weather,0.001727116,0.035405872,1,0,0,0.645,polygon_2,1,report,0,6,6,18,1,,,,,,,
,,,,,,,,,,,,,,,,,,,,,0.03,0.01,0.02,child,mother,flu,images/child-mother-arial1.png,A34CPKFZXBX1PO,A34CPKFZXBX1PO,22,Yes,2020-12-28_14h55.48.445,weird_font_low_1,2020.2.10,MacIntel,60,,,,,,,,,,,,mother,-0.017271157,-0.025906736,1,0,0,0.578,polygon_2,1,child,0,7,7,2,1,,,,,,,
,,,,,,,,,,,,,,,,,,,,,0.061,0.027,0.034,quarter,dollar,SF,images/quarter-dollar-sf.png,A34CPKFZXBX1PO,A34CPKFZXBX1PO,22,Yes,2020-12-28_14h55.48.445,weird_font_low_1,2020.2.10,MacIntel,60,,,,,,,,,,,,dollar,-0.021588946,-0.041450777,1,0,0,0.761,polygon_2,1,quarter,0,8,8,16,1,,,,,,,
,,,,,,,,,,,,,,,,,,,,,0.033,0.027,0.006,engine,machine,SF,images/engine-machine-sf.png,A34CPKFZXBX1PO,A34CPKFZXBX1PO,22,Yes,2020-12-28_14h55.48.445,weird_font_low_1,2020.2.10,MacIntel,60,,,,,,,,,,,,machine,0.042314335,-0.032815199,1,0,0,0.827,polygon_2,1,engine,0,9,9,5,1,,,,,,,
,,,,,,,,,,,,,,,,,,,,,0.016,0.012,0.004,taste,touch,flu,images/taste-touch-arial1.png,A34CPKFZXBX1PO,A34CPKFZXBX1PO,22,Yes,2020-12-28_14h55.48.445,weird_font_low_1,2020.2.10,MacIntel,60,,,,,,,,,,,,touch,-0.017271157,-0.031951641,1,0,0,0.745,polygon_2,1,taste,0,10,10,21,1,,,,,,,
,,,,,,,,,,,,,,,,,,,,,0.018,0.011,0.007,curve,shape,SF,images/curve-shape-sf.png,A34CPKFZXBX1PO,A34CPKFZXBX1PO,22,Yes,2020-12-28_14h55.48.445,weird_font_low_1,2020.2.10,MacIntel,60,,,,,,,,,,,,shape,-0.03626943,-0.039723661,1,0,0,0.663,polygon_2,1,curve,0,11,11,4,1,,,,,,,
,,,,,,,,,,,,,,,,,,,,,0.015,0.028,0.013,range,rifle,SF,images/range-rifle-sf.png,A34CPKFZXBX1PO,A34CPKFZXBX1PO,22,Yes,2020-12-28_14h55.48.445,weird_font_low_1,2020.2.10,MacIntel,60,,,,,,,,,,,,firearm,-0.057858377,-0.006908463,1,0,0,0.662,polygon_2,1,range,0,12,12,17,1,,,,,,,
,,,,,,,,,,,,,,,,,,,,,0.021,0.053,0.032,sheet,cover,flu,images/sheet-cover-arial1.png,A34CPKFZXBX1PO,A34CPKFZXBX1PO,22,Yes,2020-12-28_14h55.48.445,weird_font_low_1,2020.2.10,MacIntel,60,,,,,,,,,,,,cover,0.02417962,-0.025043178,1,0,0,0.662,polygon_2,1,sheet,0,13,13,19,1,,,,,,,
,,,,,,,,,,,,,,,,,,,,,0.014,0.01,0.004,office,doctor ,SF,images/office-doctor-sf.png,A34CPKFZXBX1PO,A34CPKFZXBX1PO,22,Yes,2020-12-28_14h55.48.445,weird_font_low_1,2020.2.10,MacIntel,60,,,,,,,,,,,,,0.017271157,0.009499136,1,0,0,0.778,polygon_2,1,office,0,14,14,13,1,,,,,,,
,,,,,,,,,,,,,,,,,,,,,0.067,0.047,0.02,stick,branch,flu,images/stick-branch-arial1.png,A34CPKFZXBX1PO,A34CPKFZXBX1PO,22,Yes,2020-12-28_14h55.48.445,weird_font_low_1,2020.2.10,MacIntel,60,,,,,,,,,,,,branch,0.040587219,-0.004317789,1,0,0,0.699,polygon_2,1,stick,0,15,15,20,1,,,,,,,
,,,,,,,,,,,,,,,,,,,,,0.036,0.031,0.005,paint,picture,SF,images/paint-picture-sf.png,A34CPKFZXBX1PO,A34CPKFZXBX1PO,22,Yes,2020-12-28_14h55.48.445,weird_font_low_1,2020.2.10,MacIntel,60,,,,,,,,,,,,color,0.055267703,-0.006908463,1,0,0,0.629,polygon_2,1,paint,0,16,16,14,1,,,,,,,
,,,,,,,,,,,,,,,,,,,,,0.019,0.028,0.009,lunch,supper,SF,images/lunch-supper-sf.png,A34CPKFZXBX1PO,A34CPKFZXBX1PO,22,Yes,2020-12-28_14h55.48.445,weird_font_low_1,2020.2.10,MacIntel,60,,,,,,,,,,,,break,0.054404145,0.022452504,1,0,0,0.529,polygon_2,1,lunch,0,17,17,8,1,,,,,,,
,,,,,,,,,,,,,,,,,,,,,0.035,0.046,0.011,college,student,SF,images/college-student-sf.png,A34CPKFZXBX1PO,A34CPKFZXBX1PO,22,Yes,2020-12-28_14h55.48.445,weird_font_low_1,2020.2.10,MacIntel,60,,,,,,,,,,,,student,0.136442142,-0.039723661,1,0,0,0.613,polygon_2,1,college,0,18,18,3,1,,,,,,,
,,,,,,,,,,,,,,,,,,,,,0.02,0.029,0.009,angle,corner,flu,images/angle-corner-arial1.png,A34CPKFZXBX1PO,A34CPKFZXBX1PO,22,Yes,2020-12-28_14h55.48.445,weird_font_low_1,2020.2.10,MacIntel,60,,,,,,,,,,,,corner,0.053540587,-0.035405872,1,0,0,0.643,polygon_2,1,angle,0,19,19,0,1,,,,,,,
,,,,,,,,,,,,,,,,,,,,,0.056,0.031,0.025,native,foreign,flu,images/native-foreign-arial1.png,A34CPKFZXBX1PO,A34CPKFZXBX1PO,22,Yes,2020-12-28_14h55.48.445,weird_font_low_1,2020.2.10,MacIntel,60,,,,,,,,,,,,foreign,0.073402418,-0.015544041,1,0,0,0.729,polygon_2,1,native,0,20,20,10,1,,,,,,,
,,,,,,,,,,,,,,,,,,,,,0.04,0.019,0.021,block,street,flu,images/block-street-arial1.png,A34CPKFZXBX1PO,A34CPKFZXBX1PO,22,Yes,2020-12-28_14h55.48.445,weird_font_low_1,2020.2.10,MacIntel,60,,,,,,,,,,,,city,0.053540587,0.000863558,1,0,0,0.579,polygon_2,1,block,0,21,21,1,1,,,,,,,
,,,,,,,,,,,,,,,,,,,,,0.051,0.049,0.002,train,plane,SF,images/train-plane-sf.png,A34CPKFZXBX1PO,A34CPKFZXBX1PO,22,Yes,2020-12-28_14h55.48.445,weird_font_low_1,2020.2.10,MacIntel,60,,,,,,,,,,,,bus,0.030224525,-0.037996546,1,0,0,0.628,polygon_2,1,train,0,22,22,23,1,,,,,,,
,,,,,,,,,,,,,,,,,,,,,0.034,0.034,0,novel,story,SF,images/novel-story-sf.png,A34CPKFZXBX1PO,A34CPKFZXBX1PO,22,Yes,2020-12-28_14h55.48.445,weird_font_low_1,2020.2.10,MacIntel,60,,,,,,,,,,,,book,0.112262522,-0.006908463,1,0,0,0.597,polygon_2,1,novel,0,23,23,11,1,,,,,,,
,,,,,,,,,,,,,,,,,,,,,,,,,,,,A34CPKFZXBX1PO,A34CPKFZXBX1PO,22,Yes,2020-12-28_14h55.48.445,weird_font_low_1,2020.2.10,MacIntel,60,,,,,,,,,,,,,,,,,,,,,,,,,,,0.299654577,-0.082901554,1,0,0,1.196,end_polygon
