key_resp.keys,key_resp.rt,mouse.x,mouse.y,mouse.leftButton,mouse.midButton,mouse.rightButton,mouse.time,mouse.clicked_name,mouse_4.x,mouse_4.y,mouse_4.leftButton,mouse_4.midButton,mouse_4.rightButton,mouse_4.time,mouse_4.clicked_name,cb.thisRepN,cb.thisTrialN,cb.thisN,cb.thisIndex,cb.ran,Forward,Backward,AbsoluteValue,cue1,targ1,font,images,participant,turkid,Age,Did you learn English before the age of 4?,date,expName,psychopyVersion,OS,frameRate,atypic_slider.response,atypic_slider.rt,normal_slider.response,normal_slider.rt,mouse_3.x,mouse_3.y,mouse_3.leftButton,mouse_3.midButton,mouse_3.rightButton,mouse_3.time,mouse_3.clicked_name,textbox.text,mouse_5.x,mouse_5.y,mouse_5.leftButton,mouse_5.midButton,mouse_5.rightButton,mouse_5.time,mouse_5.clicked_name,correctAns,textbox_response,test.thisRepN,test.thisTrialN,test.thisN,test.thisIndex,test.ran,mouse_2.x,mouse_2.y,mouse_2.leftButton,mouse_2.midButton,mouse_2.rightButton,mouse_2.time,mouse_2.clicked_name
y,5.121,0.00931677,-0.316770186,1,0,0,9.065,cont1,0.00931677,-0.316770186,1,0,0,4.136,stop_stud,0,0,0,10,1,0.056,0.031,0.025,native,foreign,flu,images/native-foreign-arial1.png,Johnathan,A1MXV3UQA0G711,22,Yes,2020-12-28_16h00.21.925,weird_font_low_1,2020.2.10,MacIntel,60,,,,,,,,,,,,,,,,,,,,,,,,,,,,,,,,,
,,,,,,,,,0.00931677,-0.316770186,1,0,0,1.947,stop_stud,0,1,1,12,1,0.014,0.021,0.007,object,symbol,flu,images/object-symbol-arial1.png,Johnathan,A1MXV3UQA0G711,22,Yes,2020-12-28_16h00.21.925,weird_font_low_1,2020.2.10,MacIntel,60,,,,,,,,,,,,,,,,,,,,,,,,,,,,,,,,,
,,,,,,,,,0.00931677,-0.318322981,1,0,0,1.617,stop_stud,0,2,2,2,1,0.03,0.01,0.02,child,mother,flu,images/child-mother-arial1.png,Johnathan,A1MXV3UQA0G711,22,Yes,2020-12-28_16h00.21.925,weird_font_low_1,2020.2.10,MacIntel,60,,,,,,,,,,,,,,,,,,,,,,,,,,,,,,,,,
,,,,,,,,,0.00931677,-0.318322981,1,0,0,0.915,stop_stud,0,3,3,22,1,0.039,0.02,0.019,throat ,voice ,flu,images/throat-voice-arial1.png,Johnathan,A1MXV3UQA0G711,22,Yes,2020-12-28_16h00.21.925,weird_font_low_1,2020.2.10,MacIntel,60,,,,,,,,,,,,,,,,,,,,,,,,,,,,,,,,,
,,,,,,,,,0.00931677,-0.318322981,1,0,0,2.517,stop_stud,0,4,4,14,1,0.036,0.031,0.005,paint,picture,SF,images/paint-picture-sf.png,Johnathan,A1MXV3UQA0G711,22,Yes,2020-12-28_16h00.21.925,weird_font_low_1,2020.2.10,MacIntel,60,,,,,,,,,,,,,,,,,,,,,,,,,,,,,,,,,
,,,,,,,,,0.010869565,-0.318322981,1,0,0,2.4,stop_stud,0,5,5,5,1,0.033,0.027,0.006,engine,machine,SF,images/engine-machine-sf.png,Johnathan,A1MXV3UQA0G711,22,Yes,2020-12-28_16h00.21.925,weird_font_low_1,2020.2.10,MacIntel,60,,,,,,,,,,,,,,,,,,,,,,,,,,,,,,,,,
,,,,,,,,,0.01242236,-0.318322981,1,0,0,2.333,stop_stud,0,6,6,4,1,0.018,0.011,0.007,curve,shape,SF,images/curve-shape-sf.png,Johnathan,A1MXV3UQA0G711,22,Yes,2020-12-28_16h00.21.925,weird_font_low_1,2020.2.10,MacIntel,60,,,,,,,,,,,,,,,,,,,,,,,,,,,,,,,,,
,,,,,,,,,0.01242236,-0.319875776,1,0,0,2.15,stop_stud,0,7,7,18,1,0.015,0.024,0.009,report,weather,SF,images/report-weather-sf.png,Johnathan,A1MXV3UQA0G711,22,Yes,2020-12-28_16h00.21.925,weird_font_low_1,2020.2.10,MacIntel,60,,,,,,,,,,,,,,,,,,,,,,,,,,,,,,,,,
,,,,,,,,,0.01242236,-0.319875776,1,0,0,1.349,stop_stud,0,8,8,1,1,0.04,0.019,0.021,block,street,flu,images/block-street-arial1.png,Johnathan,A1MXV3UQA0G711,22,Yes,2020-12-28_16h00.21.925,weird_font_low_1,2020.2.10,MacIntel,60,,,,,,,,,,,,,,,,,,,,,,,,,,,,,,,,,
,,,,,,,,,0.01242236,-0.319875776,1,0,0,2.434,stop_stud,0,9,9,20,1,0.067,0.047,0.02,stick,branch,flu,images/stick-branch-arial1.png,Johnathan,A1MXV3UQA0G711,22,Yes,2020-12-28_16h00.21.925,weird_font_low_1,2020.2.10,MacIntel,60,,,,,,,,,,,,,,,,,,,,,,,,,,,,,,,,,
,,,,,,,,,0.01552795,-0.321428571,1,0,0,1.151,stop_stud,0,10,10,11,1,0.034,0.034,0,novel,story,SF,images/novel-story-sf.png,Johnathan,A1MXV3UQA0G711,22,Yes,2020-12-28_16h00.21.925,weird_font_low_1,2020.2.10,MacIntel,60,,,,,,,,,,,,,,,,,,,,,,,,,,,,,,,,,
,,,,,,,,,0.017080745,-0.324534161,1,0,0,1.249,stop_stud,0,11,11,3,1,0.035,0.046,0.011,college,student,SF,images/college-student-sf.png,Johnathan,A1MXV3UQA0G711,22,Yes,2020-12-28_16h00.21.925,weird_font_low_1,2020.2.10,MacIntel,60,,,,,,,,,,,,,,,,,,,,,,,,,,,,,,,,,
,,,,,,,,,0.017080745,-0.326086957,1,0,0,7.069,stop_stud,0,12,12,0,1,0.02,0.029,0.009,angle,corner,flu,images/angle-corner-arial1.png,Johnathan,A1MXV3UQA0G711,22,Yes,2020-12-28_16h00.21.925,weird_font_low_1,2020.2.10,MacIntel,60,,,,,,,,,,,,,,,,,,,,,,,,,,,,,,,,,
,,,,,,,,,0.017080745,-0.326086957,1,0,0,2.217,stop_stud,0,13,13,9,1,0.042,0.055,0.013,nation,state,SF,images/nation-state-sf.png,Johnathan,A1MXV3UQA0G711,22,Yes,2020-12-28_16h00.21.925,weird_font_low_1,2020.2.10,MacIntel,60,,,,,,,,,,,,,,,,,,,,,,,,,,,,,,,,,
,,,,,,,,,0.017080745,-0.326086957,1,0,0,1.467,stop_stud,0,14,14,15,1,0.014,0.03,0.016,people,world,flu,images/people -world-arial1.png,Johnathan,A1MXV3UQA0G711,22,Yes,2020-12-28_16h00.21.925,weird_font_low_1,2020.2.10,MacIntel,60,,,,,,,,,,,,,,,,,,,,,,,,,,,,,,,,,
,,,,,,,,,0.017080745,-0.326086957,1,0,0,1.183,stop_stud,0,15,15,21,1,0.016,0.012,0.004,taste,touch,flu,images/taste-touch-arial1.png,Johnathan,A1MXV3UQA0G711,22,Yes,2020-12-28_16h00.21.925,weird_font_low_1,2020.2.10,MacIntel,60,,,,,,,,,,,,,,,,,,,,,,,,,,,,,,,,,
,,,,,,,,,0.017080745,-0.326086957,1,0,0,1.717,stop_stud,0,16,16,8,1,0.019,0.028,0.009,lunch,supper,SF,images/lunch-supper-sf.png,Johnathan,A1MXV3UQA0G711,22,Yes,2020-12-28_16h00.21.925,weird_font_low_1,2020.2.10,MacIntel,60,,,,,,,,,,,,,,,,,,,,,,,,,,,,,,,,,
,,,,,,,,,0.017080745,-0.326086957,1,0,0,5.935,stop_stud,0,17,17,7,1,0.027,0.041,0.014,group,meeting,flu,images/group-meeting-arial1.png,Johnathan,A1MXV3UQA0G711,22,Yes,2020-12-28_16h00.21.925,weird_font_low_1,2020.2.10,MacIntel,60,,,,,,,,,,,,,,,,,,,,,,,,,,,,,,,,,
,,,,,,,,,0.017080745,-0.326086957,1,0,0,2.033,stop_stud,0,18,18,17,1,0.015,0.028,0.013,range,rifle,SF,images/range-rifle-sf.png,Johnathan,A1MXV3UQA0G711,22,Yes,2020-12-28_16h00.21.925,weird_font_low_1,2020.2.10,MacIntel,60,,,,,,,,,,,,,,,,,,,,,,,,,,,,,,,,,
,,,,,,,,,0.017080745,-0.326086957,1,0,0,5.634,stop_stud,0,19,19,6,1,0.02,0.028,0.008,factory,product,flu,images/factory-product-arial1.png,Johnathan,A1MXV3UQA0G711,22,Yes,2020-12-28_16h00.21.925,weird_font_low_1,2020.2.10,MacIntel,60,,,,,,,,,,,,,,,,,,,,,,,,,,,,,,,,,
,,,,,,,,,0.02173913,-0.329192547,1,0,0,1.35,stop_stud,0,20,20,23,1,0.051,0.049,0.002,train,plane,SF,images/train-plane-sf.png,Johnathan,A1MXV3UQA0G711,22,Yes,2020-12-28_16h00.21.925,weird_font_low_1,2020.2.10,MacIntel,60,,,,,,,,,,,,,,,,,,,,,,,,,,,,,,,,,
,,,,,,,,,0.017080745,-0.312111801,1,0,0,4.152,stop_stud,0,21,21,19,1,0.021,0.053,0.032,sheet,cover,flu,images/sheet-cover-arial1.png,Johnathan,A1MXV3UQA0G711,22,Yes,2020-12-28_16h00.21.925,weird_font_low_1,2020.2.10,MacIntel,60,,,,,,,,,,,,,,,,,,,,,,,,,,,,,,,,,
,,,,,,,,,0.017080745,-0.309006211,1,0,0,1.349,stop_stud,0,22,22,13,1,0.014,0.01,0.004,office,doctor ,SF,images/office-doctor-sf.png,Johnathan,A1MXV3UQA0G711,22,Yes,2020-12-28_16h00.21.925,weird_font_low_1,2020.2.10,MacIntel,60,,,,,,,,,,,,,,,,,,,,,,,,,,,,,,,,,
,,,,,,,,,0.017080745,-0.309006211,1,0,0,1.2,stop_stud,0,23,23,16,1,0.061,0.027,0.034,quarter,dollar,SF,images/quarter-dollar-sf.png,Johnathan,A1MXV3UQA0G711,22,Yes,2020-12-28_16h00.21.925,weird_font_low_1,2020.2.10,MacIntel,60,,,,,,,,,,,,,,,,,,,,,,,,,,,,,,,,,
,,,,,,,,,,,,,,,,,,,,,0.021,0.053,0.032,sheet,cover,flu,images/sheet-cover-arial1.png,Johnathan,A1MXV3UQA0G711,22,Yes,2020-12-28_16h00.21.925,weird_font_low_1,2020.2.10,MacIntel,60,51.70807453,0.131,40.37267081,6.795,0.007763975,-0.413043478,1,0,0,12.905,polygon,bed,0.083850932,0.01863354,1,0,0,1.162,polygon_2,1,sheet,0,0,0,19,1,,,,,,,
,,,,,,,,,,,,,,,,,,,,,0.056,0.031,0.025,native,foreign,flu,images/native-foreign-arial1.png,Johnathan,A1MXV3UQA0G711,22,Yes,2020-12-28_16h00.21.925,weird_font_low_1,2020.2.10,MacIntel,60,,,,,,,,,,,,foreign,0.048136646,-0.035714286,1,0,0,0.929,polygon_2,1,native,0,1,1,10,1,,,,,,,
,,,,,,,,,,,,,,,,,,,,,0.035,0.046,0.011,college,student,SF,images/college-student-sf.png,Johnathan,A1MXV3UQA0G711,22,Yes,2020-12-28_16h00.21.925,weird_font_low_1,2020.2.10,MacIntel,60,,,,,,,,,,,,student,0.114906832,0.035714286,1,0,0,0.834,polygon_2,1,college,0,2,2,3,1,,,,,,,
,,,,,,,,,,,,,,,,,,,,,0.014,0.021,0.007,object,symbol,flu,images/object-symbol-arial1.png,Johnathan,A1MXV3UQA0G711,22,Yes,2020-12-28_16h00.21.925,weird_font_low_1,2020.2.10,MacIntel,60,,,,,,,,,,,,,0.010869565,-0.01863354,1,0,0,0.88,polygon_2,1,object,0,3,3,12,1,,,,,,,
,,,,,,,,,,,,,,,,,,,,,0.04,0.019,0.021,block,street,flu,images/block-street-arial1.png,Johnathan,A1MXV3UQA0G711,22,Yes,2020-12-28_16h00.21.925,weird_font_low_1,2020.2.10,MacIntel,60,,,,,,,,,,,,street,0.043478261,0.029503106,1,0,0,0.78,polygon_2,1,block,0,4,4,1,1,,,,,,,
,,,,,,,,,,,,,,,,,,,,,0.014,0.03,0.016,people,world,flu,images/people -world-arial1.png,Johnathan,A1MXV3UQA0G711,22,Yes,2020-12-28_16h00.21.925,weird_font_low_1,2020.2.10,MacIntel,60,,,,,,,,,,,,world,0.045031056,0.034161491,1,0,0,1.062,polygon_2,1,people,0,5,5,15,1,,,,,,,
,,,,,,,,,,,,,,,,,,,,,0.061,0.027,0.034,quarter,dollar,SF,images/quarter-dollar-sf.png,Johnathan,A1MXV3UQA0G711,22,Yes,2020-12-28_16h00.21.925,weird_font_low_1,2020.2.10,MacIntel,60,,,,,,,,,,,,dollar,0.051242236,0.001552795,1,0,0,0.696,polygon_2,1,quarter,0,6,6,16,1,,,,,,,
,,,,,,,,,,,,,,,,,,,,,0.016,0.012,0.004,taste,touch,flu,images/taste-touch-arial1.png,Johnathan,A1MXV3UQA0G711,22,Yes,2020-12-28_16h00.21.925,weird_font_low_1,2020.2.10,MacIntel,60,,,,,,,,,,,,touch,0.080745342,-0.027950311,1,0,0,1.079,polygon_2,1,taste,0,7,7,21,1,,,,,,,
,,,,,,,,,,,,,,,,,,,,,0.03,0.01,0.02,child,mother,flu,images/child-mother-arial1.png,Johnathan,A1MXV3UQA0G711,22,Yes,2020-12-28_16h00.21.925,weird_font_low_1,2020.2.10,MacIntel,60,,,,,,,,,,,,mother,0.131987578,-0.00931677,1,0,0,0.977,polygon_2,1,child,0,8,8,2,1,,,,,,,
,,,,,,,,,,,,,,,,,,,,,0.067,0.047,0.02,stick,branch,flu,images/stick-branch-arial1.png,Johnathan,A1MXV3UQA0G711,22,Yes,2020-12-28_16h00.21.925,weird_font_low_1,2020.2.10,MacIntel,60,,,,,,,,,,,,branch,0.051242236,0.020186335,1,0,0,0.978,polygon_2,1,stick,0,9,9,20,1,,,,,,,
,,,,,,,,,,,,,,,,,,,,,0.051,0.049,0.002,train,plane,SF,images/train-plane-sf.png,Johnathan,A1MXV3UQA0G711,22,Yes,2020-12-28_16h00.21.925,weird_font_low_1,2020.2.10,MacIntel,60,,,,,,,,,,,,,0.118012422,0.049689441,1,0,0,1.146,polygon_2,1,train,0,10,10,23,1,,,,,,,
,,,,,,,,,,,,,,,,,,,,,0.018,0.011,0.007,curve,shape,SF,images/curve-shape-sf.png,Johnathan,A1MXV3UQA0G711,22,Yes,2020-12-28_16h00.21.925,weird_font_low_1,2020.2.10,MacIntel,60,,,,,,,,,,,,bend,0.071428571,0.026397516,1,0,0,1.178,polygon_2,1,curve,0,11,11,4,1,,,,,,,
,,,,,,,,,,,,,,,,,,,,,0.039,0.02,0.019,throat ,voice ,flu,images/throat-voice-arial1.png,Johnathan,A1MXV3UQA0G711,22,Yes,2020-12-28_16h00.21.925,weird_font_low_1,2020.2.10,MacIntel,60,,,,,,,,,,,,talk,0.088509317,0.023291925,1,0,0,1.13,polygon_2,1,throat ,0,12,12,22,1,,,,,,,
,,,,,,,,,,,,,,,,,,,,,0.014,0.01,0.004,office,doctor ,SF,images/office-doctor-sf.png,Johnathan,A1MXV3UQA0G711,22,Yes,2020-12-28_16h00.21.925,weird_font_low_1,2020.2.10,MacIntel,60,,,,,,,,,,,,building,0.104037267,-0.02484472,1,0,0,0.795,polygon_2,1,office,0,13,13,13,1,,,,,,,
,,,,,,,,,,,,,,,,,,,,,0.042,0.055,0.013,nation,state,SF,images/nation-state-sf.png,Johnathan,A1MXV3UQA0G711,22,Yes,2020-12-28_16h00.21.925,weird_font_low_1,2020.2.10,MacIntel,60,,,,,,,,,,,,state,0.159937888,0.010869565,1,0,0,0.964,polygon_2,1,nation,0,14,14,9,1,,,,,,,
,,,,,,,,,,,,,,,,,,,,,0.027,0.041,0.014,group,meeting,flu,images/group-meeting-arial1.png,Johnathan,A1MXV3UQA0G711,22,Yes,2020-12-28_16h00.21.925,weird_font_low_1,2020.2.10,MacIntel,60,,,,,,,,,,,,,0.055900621,0.00310559,1,0,0,0.9,polygon_2,1,group,0,15,15,7,1,,,,,,,
,,,,,,,,,,,,,,,,,,,,,0.015,0.024,0.009,report,weather,SF,images/report-weather-sf.png,Johnathan,A1MXV3UQA0G711,22,Yes,2020-12-28_16h00.21.925,weird_font_low_1,2020.2.10,MacIntel,60,,,,,,,,,,,,card,0.068322981,-0.004658385,1,0,0,1.079,polygon_2,1,report,0,16,16,18,1,,,,,,,
,,,,,,,,,,,,,,,,,,,,,0.02,0.029,0.009,angle,corner,flu,images/angle-corner-arial1.png,Johnathan,A1MXV3UQA0G711,22,Yes,2020-12-28_16h00.21.925,weird_font_low_1,2020.2.10,MacIntel,60,,,,,,,,,,,,corner,0.108695652,0.007763975,1,0,0,1.099,polygon_2,1,angle,0,17,17,0,1,,,,,,,
,,,,,,,,,,,,,,,,,,,,,0.015,0.028,0.013,range,rifle,SF,images/range-rifle-sf.png,Johnathan,A1MXV3UQA0G711,22,Yes,2020-12-28_16h00.21.925,weird_font_low_1,2020.2.10,MacIntel,60,,,,,,,,,,,,rifle,0.071428571,0.004658385,1,0,0,0.846,polygon_2,1,range,0,18,18,17,1,,,,,,,
,,,,,,,,,,,,,,,,,,,,,0.033,0.027,0.006,engine,machine,SF,images/engine-machine-sf.png,Johnathan,A1MXV3UQA0G711,22,Yes,2020-12-28_16h00.21.925,weird_font_low_1,2020.2.10,MacIntel,60,,,,,,,,,,,,machine,0.085403727,-0.049689441,1,0,0,0.83,polygon_2,1,engine,0,19,19,5,1,,,,,,,
,,,,,,,,,,,,,,,,,,,,,0.034,0.034,0,novel,story,SF,images/novel-story-sf.png,Johnathan,A1MXV3UQA0G711,22,Yes,2020-12-28_16h00.21.925,weird_font_low_1,2020.2.10,MacIntel,60,,,,,,,,,,,,book,0.090062112,0.01242236,1,0,0,0.814,polygon_2,1,novel,0,20,20,11,1,,,,,,,
,,,,,,,,,,,,,,,,,,,,,0.02,0.028,0.008,factory,product,flu,images/factory-product-arial1.png,Johnathan,A1MXV3UQA0G711,22,Yes,2020-12-28_16h00.21.925,weird_font_low_1,2020.2.10,MacIntel,60,,,,,,,,,,,,machine,0.105590062,0.040372671,1,0,0,0.929,polygon_2,1,factory,0,21,21,6,1,,,,,,,
,,,,,,,,,,,,,,,,,,,,,0.019,0.028,0.009,lunch,supper,SF,images/lunch-supper-sf.png,Johnathan,A1MXV3UQA0G711,22,Yes,2020-12-28_16h00.21.925,weird_font_low_1,2020.2.10,MacIntel,60,,,,,,,,,,,,,0.121118012,0.01863354,1,0,0,0.783,polygon_2,1,lunch,0,22,22,8,1,,,,,,,
,,,,,,,,,,,,,,,,,,,,,0.036,0.031,0.005,paint,picture,SF,images/paint-picture-sf.png,Johnathan,A1MXV3UQA0G711,22,Yes,2020-12-28_16h00.21.925,weird_font_low_1,2020.2.10,MacIntel,60,,,,,,,,,,,,canvas,0.041925466,-0.027950311,1,0,0,0.932,polygon_2,1,paint,0,23,23,14,1,,,,,,,
,,,,,,,,,,,,,,,,,,,,,,,,,,,,Johnathan,A1MXV3UQA0G711,22,Yes,2020-12-28_16h00.21.925,weird_font_low_1,2020.2.10,MacIntel,60,,,,,,,,,,,,,,,,,,,,,,,,,,,0.355590062,-0.110248447,1,0,0,1.731,end_polygon
